onset	duration	sample	value	event_code	user_answer	correct_answer	target_count
0	n/a	0	break cnt	break cnt	n/a	n/a	8
52.216	n/a	26108	seqLearning_start	91	n/a	n/a	8
58.47	n/a	29235	learningBlock_1	31	n/a	n/a	8
58.484	n/a	29242	dot_no1_ON	11	n/a	n/a	8
59.072	n/a	29536	dot_no1_OFF	21	n/a	n/a	8
60.392	n/a	30196	dot_no6_ON	16	n/a	n/a	8
60.972	n/a	30486	dot_no6_OFF	26	n/a	n/a	8
62.292	n/a	31146	dot_no4_ON	14	n/a	n/a	8
62.872	n/a	31436	dot_no4_OFF	24	n/a	n/a	8
64.192	n/a	32096	dot_no2_ON	12	n/a	n/a	8
64.772	n/a	32386	dot_no2_OFF	22	n/a	n/a	8
66.092	n/a	33046	dot_no7_ON	17	n/a	n/a	8
66.672	n/a	33336	dot_no7_OFF	27	n/a	n/a	8
67.992	n/a	33996	dot_no3_ON	13	n/a	n/a	8
68.572	n/a	34286	dot_no3_OFF	23	n/a	n/a	8
69.892	n/a	34946	dot_no8_ON	18	n/a	n/a	8
70.472	n/a	35236	dot_no8_OFF	28	n/a	n/a	8
71.792	n/a	35896	dot_no5_ON	15	n/a	n/a	8
72.372	n/a	36186	dot_no5_OFF	25	n/a	n/a	8
73.692	n/a	36846	dot_no2_ON	12	n/a	n/a	8
74.272	n/a	37136	dot_no2_OFF	22	n/a	n/a	8
75.592	n/a	37796	dot_no7_ON	17	n/a	n/a	8
76.172	n/a	38086	dot_no7_OFF	27	1-6-4-2-7-5-3-8-6-4	1-6-4-2-7-3-8-5-2-7	8
112.122	n/a	56061	learningBlock_2	32	n/a	n/a	8
112.13	n/a	56065	dot_no1_ON	11	n/a	n/a	8
112.71	n/a	56355	dot_no1_OFF	21	n/a	n/a	8
114.03	n/a	57015	dot_no6_ON	16	n/a	n/a	8
114.61	n/a	57305	dot_no6_OFF	26	n/a	n/a	8
115.93	n/a	57965	dot_no4_ON	14	n/a	n/a	8
116.51	n/a	58255	dot_no4_OFF	24	n/a	n/a	8
117.83	n/a	58915	dot_no2_ON	12	n/a	n/a	8
118.41	n/a	59205	dot_no2_OFF	22	n/a	n/a	8
119.73	n/a	59865	dot_no7_ON	17	n/a	n/a	8
120.31	n/a	60155	dot_no7_OFF	27	n/a	n/a	8
121.63	n/a	60815	dot_no3_ON	13	n/a	n/a	8
122.21	n/a	61105	dot_no3_OFF	23	n/a	n/a	8
123.53	n/a	61765	dot_no8_ON	18	n/a	n/a	8
124.11	n/a	62055	dot_no8_OFF	28	n/a	n/a	8
125.43	n/a	62715	dot_no5_ON	15	n/a	n/a	8
126.01	n/a	63005	dot_no5_OFF	25	n/a	n/a	8
127.33	n/a	63665	dot_no2_ON	12	n/a	n/a	8
127.91	n/a	63955	dot_no2_OFF	22	n/a	n/a	8
129.23	n/a	64615	dot_no7_ON	17	n/a	n/a	8
129.81	n/a	64905	dot_no7_OFF	27	1-6-4-2-7-5-2-7-4-2	1-6-4-2-7-3-8-5-2-7	8
172.992	n/a	86496	learningBlock_3	33	n/a	n/a	8
173	n/a	86500	dot_no1_ON	11	n/a	n/a	8
173.58	n/a	86790	dot_no1_OFF	21	n/a	n/a	8
174.9	n/a	87450	dot_no6_ON	16	n/a	n/a	8
175.48	n/a	87740	dot_no6_OFF	26	n/a	n/a	8
176.8	n/a	88400	dot_no4_ON	14	n/a	n/a	8
177.39	n/a	88695	dot_no4_OFF	24	n/a	n/a	8
178.71	n/a	89355	dot_no2_ON	12	n/a	n/a	8
179.3	n/a	89650	dot_no2_OFF	22	n/a	n/a	8
180.62	n/a	90310	dot_no7_ON	17	n/a	n/a	8
181.2	n/a	90600	dot_no7_OFF	27	n/a	n/a	8
182.52	n/a	91260	dot_no3_ON	13	n/a	n/a	8
183.1	n/a	91550	dot_no3_OFF	23	n/a	n/a	8
184.42	n/a	92210	dot_no8_ON	18	n/a	n/a	8
185.01	n/a	92505	dot_no8_OFF	28	n/a	n/a	8
186.328	n/a	93164	dot_no5_ON	15	n/a	n/a	8
186.908	n/a	93454	dot_no5_OFF	25	n/a	n/a	8
188.228	n/a	94114	dot_no2_ON	12	n/a	n/a	8
188.808	n/a	94404	dot_no2_OFF	22	n/a	n/a	8
190.128	n/a	95064	dot_no7_ON	17	n/a	n/a	8
190.71	n/a	95355	dot_no7_OFF	27	1-6-4-2-7-3-5-8-2-4	1-6-4-2-7-3-8-5-2-7	8
225.85	n/a	112925	learningBlock_4	34	n/a	n/a	8
225.858	n/a	112929	dot_no1_ON	11	n/a	n/a	8
226.438	n/a	113219	dot_no1_OFF	21	n/a	n/a	8
227.758	n/a	113879	dot_no6_ON	16	n/a	n/a	8
228.338	n/a	114169	dot_no6_OFF	26	n/a	n/a	8
229.658	n/a	114829	dot_no4_ON	14	n/a	n/a	8
230.248	n/a	115124	dot_no4_OFF	24	n/a	n/a	8
231.568	n/a	115784	dot_no2_ON	12	n/a	n/a	8
232.158	n/a	116079	dot_no2_OFF	22	n/a	n/a	8
233.478	n/a	116739	dot_no7_ON	17	n/a	n/a	8
234.06	n/a	117030	dot_no7_OFF	27	n/a	n/a	8
235.378	n/a	117689	dot_no3_ON	13	n/a	n/a	8
235.958	n/a	117979	dot_no3_OFF	23	n/a	n/a	8
237.278	n/a	118639	dot_no8_ON	18	n/a	n/a	8
237.858	n/a	118929	dot_no8_OFF	28	n/a	n/a	8
239.178	n/a	119589	dot_no5_ON	15	n/a	n/a	8
239.768	n/a	119884	dot_no5_OFF	25	n/a	n/a	8
241.088	n/a	120544	dot_no2_ON	12	n/a	n/a	8
241.678	n/a	120839	dot_no2_OFF	22	n/a	n/a	8
242.998	n/a	121499	dot_no7_ON	17	n/a	n/a	8
243.588	n/a	121794	dot_no7_OFF	27	8-1-6-4-2-7-3-5-8-2	1-6-4-2-7-3-8-5-2-7	8
276.06	n/a	138030	learningBlock_5	35	n/a	n/a	8
276.068	n/a	138034	dot_no1_ON	11	n/a	n/a	8
276.648	n/a	138324	dot_no1_OFF	21	n/a	n/a	8
277.968	n/a	138984	dot_no6_ON	16	n/a	n/a	8
278.558	n/a	139279	dot_no6_OFF	26	n/a	n/a	8
279.878	n/a	139939	dot_no4_ON	14	n/a	n/a	8
280.458	n/a	140229	dot_no4_OFF	24	n/a	n/a	8
281.778	n/a	140889	dot_no2_ON	12	n/a	n/a	8
282.358	n/a	141179	dot_no2_OFF	22	n/a	n/a	8
283.678	n/a	141839	dot_no7_ON	17	n/a	n/a	8
284.258	n/a	142129	dot_no7_OFF	27	n/a	n/a	8
285.578	n/a	142789	dot_no3_ON	13	n/a	n/a	8
286.158	n/a	143079	dot_no3_OFF	23	n/a	n/a	8
287.476	n/a	143738	dot_no8_ON	18	n/a	n/a	8
288.056	n/a	144028	dot_no8_OFF	28	n/a	n/a	8
289.376	n/a	144688	dot_no5_ON	15	n/a	n/a	8
289.956	n/a	144978	dot_no5_OFF	25	n/a	n/a	8
291.278	n/a	145639	dot_no2_ON	12	n/a	n/a	8
291.856	n/a	145928	dot_no2_OFF	22	n/a	n/a	8
293.176	n/a	146588	dot_no7_ON	17	n/a	n/a	8
293.768	n/a	146884	dot_no7_OFF	27	1-6-4-2-7-3-8-5-2-7	1-6-4-2-7-3-8-5-2-7	8
310.49	n/a	155245	seqLearning_stop	50	n/a	n/a	8
311.123	n/a	155561.5	boundary	boundary	n/a	n/a	8
