onset	duration	sample	value	event_code	user_answer	correct_answer	target_count
0	n/a	0	break cnt	break cnt	n/a	n/a	8
36.88	n/a	18440	seqLearning_start	91	n/a	n/a	8
43.152	n/a	21576	learningBlock_1	31	n/a	n/a	8
43.192	n/a	21596	dot_no1_ON	11	n/a	n/a	8
43.782	n/a	21891	dot_no1_OFF	21	n/a	n/a	8
45.102	n/a	22551	dot_no6_ON	16	n/a	n/a	8
45.682	n/a	22841	dot_no6_OFF	26	n/a	n/a	8
47.002	n/a	23501	dot_no4_ON	14	n/a	n/a	8
47.582	n/a	23791	dot_no4_OFF	24	n/a	n/a	8
48.902	n/a	24451	dot_no2_ON	12	n/a	n/a	8
49.492	n/a	24746	dot_no2_OFF	22	n/a	n/a	8
50.812	n/a	25406	dot_no7_ON	17	n/a	n/a	8
51.402	n/a	25701	dot_no7_OFF	27	n/a	n/a	8
52.722	n/a	26361	dot_no3_ON	13	n/a	n/a	8
53.312	n/a	26656	dot_no3_OFF	23	n/a	n/a	8
54.632	n/a	27316	dot_no8_ON	18	n/a	n/a	8
55.212	n/a	27606	dot_no8_OFF	28	n/a	n/a	8
56.532	n/a	28266	dot_no5_ON	15	n/a	n/a	8
57.112	n/a	28556	dot_no5_OFF	25	n/a	n/a	8
58.432	n/a	29216	dot_no2_ON	12	n/a	n/a	8
59.012	n/a	29506	dot_no2_OFF	22	n/a	n/a	8
60.332	n/a	30166	dot_no7_ON	17	n/a	n/a	8
60.912	n/a	30456	dot_no7_OFF	27	1-6-4-2-7-5-8-3-6-2	1-6-4-2-7-3-8-5-2-7	8
82.194	n/a	41097	learningBlock_2	32	n/a	n/a	8
82.2	n/a	41100	dot_no1_ON	11	n/a	n/a	8
82.78	n/a	41390	dot_no1_OFF	21	n/a	n/a	8
84.1	n/a	42050	dot_no6_ON	16	n/a	n/a	8
84.68	n/a	42340	dot_no6_OFF	26	n/a	n/a	8
86	n/a	43000	dot_no4_ON	14	n/a	n/a	8
86.58	n/a	43290	dot_no4_OFF	24	n/a	n/a	8
87.9	n/a	43950	dot_no2_ON	12	n/a	n/a	8
88.49	n/a	44245	dot_no2_OFF	22	n/a	n/a	8
89.81	n/a	44905	dot_no7_ON	17	n/a	n/a	8
90.39	n/a	45195	dot_no7_OFF	27	n/a	n/a	8
91.71	n/a	45855	dot_no3_ON	13	n/a	n/a	8
92.29	n/a	46145	dot_no3_OFF	23	n/a	n/a	8
93.61	n/a	46805	dot_no8_ON	18	n/a	n/a	8
94.19	n/a	47095	dot_no8_OFF	28	n/a	n/a	8
95.51	n/a	47755	dot_no5_ON	15	n/a	n/a	8
96.09	n/a	48045	dot_no5_OFF	25	n/a	n/a	8
97.41	n/a	48705	dot_no2_ON	12	n/a	n/a	8
98	n/a	49000	dot_no2_OFF	22	n/a	n/a	8
99.32	n/a	49660	dot_no7_ON	17	n/a	n/a	8
99.9	n/a	49950	dot_no7_OFF	27	1-6-4-2-7-3-8-5-2-7	1-6-4-2-7-3-8-5-2-7	8
129.882	n/a	64941	learningBlock_3	33	n/a	n/a	8
129.89	n/a	64945	dot_no1_ON	11	n/a	n/a	8
130.48	n/a	65240	dot_no1_OFF	21	n/a	n/a	8
131.8	n/a	65900	dot_no6_ON	16	n/a	n/a	8
132.38	n/a	66190	dot_no6_OFF	26	n/a	n/a	8
133.7	n/a	66850	dot_no4_ON	14	n/a	n/a	8
134.29	n/a	67145	dot_no4_OFF	24	n/a	n/a	8
135.61	n/a	67805	dot_no2_ON	12	n/a	n/a	8
136.19	n/a	68095	dot_no2_OFF	22	n/a	n/a	8
137.51	n/a	68755	dot_no7_ON	17	n/a	n/a	8
138.09	n/a	69045	dot_no7_OFF	27	n/a	n/a	8
139.41	n/a	69705	dot_no3_ON	13	n/a	n/a	8
139.99	n/a	69995	dot_no3_OFF	23	n/a	n/a	8
141.31	n/a	70655	dot_no8_ON	18	n/a	n/a	8
141.89	n/a	70945	dot_no8_OFF	28	n/a	n/a	8
143.21	n/a	71605	dot_no5_ON	15	n/a	n/a	8
143.79	n/a	71895	dot_no5_OFF	25	n/a	n/a	8
145.11	n/a	72555	dot_no2_ON	12	n/a	n/a	8
145.69	n/a	72845	dot_no2_OFF	22	n/a	n/a	8
147.01	n/a	73505	dot_no7_ON	17	n/a	n/a	8
147.6	n/a	73800	dot_no7_OFF	27	1-6-4-7-3-8-5-2-6-7	1-6-4-2-7-3-8-5-2-7	8
182.812	n/a	91406	learningBlock_4	34	n/a	n/a	8
182.818	n/a	91409	dot_no1_ON	11	n/a	n/a	8
183.398	n/a	91699	dot_no1_OFF	21	n/a	n/a	8
184.718	n/a	92359	dot_no6_ON	16	n/a	n/a	8
185.298	n/a	92649	dot_no6_OFF	26	n/a	n/a	8
186.618	n/a	93309	dot_no4_ON	14	n/a	n/a	8
187.198	n/a	93599	dot_no4_OFF	24	n/a	n/a	8
188.518	n/a	94259	dot_no2_ON	12	n/a	n/a	8
189.108	n/a	94554	dot_no2_OFF	22	n/a	n/a	8
190.428	n/a	95214	dot_no7_ON	17	n/a	n/a	8
191.01	n/a	95505	dot_no7_OFF	27	n/a	n/a	8
192.328	n/a	96164	dot_no3_ON	13	n/a	n/a	8
192.908	n/a	96454	dot_no3_OFF	23	n/a	n/a	8
194.228	n/a	97114	dot_no8_ON	18	n/a	n/a	8
194.808	n/a	97404	dot_no8_OFF	28	n/a	n/a	8
196.128	n/a	98064	dot_no5_ON	15	n/a	n/a	8
196.718	n/a	98359	dot_no5_OFF	25	n/a	n/a	8
198.038	n/a	99019	dot_no2_ON	12	n/a	n/a	8
198.628	n/a	99314	dot_no2_OFF	22	n/a	n/a	8
199.948	n/a	99974	dot_no7_ON	17	n/a	n/a	8
200.528	n/a	100264	dot_no7_OFF	27	1-5-4-2-7-3-8-6-2-7	1-6-4-2-7-3-8-5-2-7	8
239.26	n/a	119630	learningBlock_5	35	n/a	n/a	8
239.268	n/a	119634	dot_no1_ON	11	n/a	n/a	8
239.848	n/a	119924	dot_no1_OFF	21	n/a	n/a	8
241.168	n/a	120584	dot_no6_ON	16	n/a	n/a	8
241.748	n/a	120874	dot_no6_OFF	26	n/a	n/a	8
243.068	n/a	121534	dot_no4_ON	14	n/a	n/a	8
243.648	n/a	121824	dot_no4_OFF	24	n/a	n/a	8
244.968	n/a	122484	dot_no2_ON	12	n/a	n/a	8
245.548	n/a	122774	dot_no2_OFF	22	n/a	n/a	8
246.868	n/a	123434	dot_no7_ON	17	n/a	n/a	8
247.448	n/a	123724	dot_no7_OFF	27	n/a	n/a	8
248.768	n/a	124384	dot_no3_ON	13	n/a	n/a	8
249.348	n/a	124674	dot_no3_OFF	23	n/a	n/a	8
250.668	n/a	125334	dot_no8_ON	18	n/a	n/a	8
251.248	n/a	125624	dot_no8_OFF	28	n/a	n/a	8
252.568	n/a	126284	dot_no5_ON	15	n/a	n/a	8
253.148	n/a	126574	dot_no5_OFF	25	n/a	n/a	8
254.468	n/a	127234	dot_no2_ON	12	n/a	n/a	8
255.048	n/a	127524	dot_no2_OFF	22	n/a	n/a	8
256.368	n/a	128184	dot_no7_ON	17	n/a	n/a	8
256.958	n/a	128479	dot_no7_OFF	27	6-4-2-7-3-8-5-1-2-7	1-6-4-2-7-3-8-5-2-7	8
285.78	n/a	142890	seqLearning_stop	50	n/a	n/a	8
286.567	n/a	143283.5	boundary	boundary	n/a	n/a	8
