onset	duration	sample	value	event_code	user_answer	correct_answer	target_count
0	n/a	0	break cnt	break cnt	n/a	n/a	8
30.05	n/a	15025	seqLearning_start	91	n/a	n/a	8
36.336	n/a	18168	learningBlock_1	31	n/a	n/a	8
36.364	n/a	18182	dot_no1_ON	11	n/a	n/a	8
36.954	n/a	18477	dot_no1_OFF	21	n/a	n/a	8
38.272	n/a	19136	dot_no6_ON	16	n/a	n/a	8
38.852	n/a	19426	dot_no6_OFF	26	n/a	n/a	8
40.172	n/a	20086	dot_no4_ON	14	n/a	n/a	8
40.762	n/a	20381	dot_no4_OFF	24	n/a	n/a	8
42.082	n/a	21041	dot_no2_ON	12	n/a	n/a	8
42.662	n/a	21331	dot_no2_OFF	22	n/a	n/a	8
43.982	n/a	21991	dot_no7_ON	17	n/a	n/a	8
44.562	n/a	22281	dot_no7_OFF	27	n/a	n/a	8
45.882	n/a	22941	dot_no3_ON	13	n/a	n/a	8
46.462	n/a	23231	dot_no3_OFF	23	n/a	n/a	8
47.782	n/a	23891	dot_no8_ON	18	n/a	n/a	8
48.362	n/a	24181	dot_no8_OFF	28	n/a	n/a	8
49.682	n/a	24841	dot_no5_ON	15	n/a	n/a	8
50.262	n/a	25131	dot_no5_OFF	25	n/a	n/a	8
51.582	n/a	25791	dot_no2_ON	12	n/a	n/a	8
52.162	n/a	26081	dot_no2_OFF	22	n/a	n/a	8
53.482	n/a	26741	dot_no7_ON	17	n/a	n/a	8
54.072	n/a	27036	dot_no7_OFF	27	1-6-3-7-5-2-4-8-8-1	1-6-4-2-7-3-8-5-2-7	8
94.216	n/a	47108	learningBlock_2	32	n/a	n/a	8
94.224	n/a	47112	dot_no1_ON	11	n/a	n/a	8
94.814	n/a	47407	dot_no1_OFF	21	n/a	n/a	8
96.134	n/a	48067	dot_no6_ON	16	n/a	n/a	8
96.714	n/a	48357	dot_no6_OFF	26	n/a	n/a	8
98.034	n/a	49017	dot_no4_ON	14	n/a	n/a	8
98.614	n/a	49307	dot_no4_OFF	24	n/a	n/a	8
99.934	n/a	49967	dot_no2_ON	12	n/a	n/a	8
100.514	n/a	50257	dot_no2_OFF	22	n/a	n/a	8
101.834	n/a	50917	dot_no7_ON	17	n/a	n/a	8
102.414	n/a	51207	dot_no7_OFF	27	n/a	n/a	8
103.734	n/a	51867	dot_no3_ON	13	n/a	n/a	8
104.314	n/a	52157	dot_no3_OFF	23	n/a	n/a	8
105.634	n/a	52817	dot_no8_ON	18	n/a	n/a	8
106.214	n/a	53107	dot_no8_OFF	28	n/a	n/a	8
107.544	n/a	53772	dot_no5_ON	15	n/a	n/a	8
108.134	n/a	54067	dot_no5_OFF	25	n/a	n/a	8
109.454	n/a	54727	dot_no2_ON	12	n/a	n/a	8
110.034	n/a	55017	dot_no2_OFF	22	n/a	n/a	8
111.354	n/a	55677	dot_no7_ON	17	n/a	n/a	8
111.944	n/a	55972	dot_no7_OFF	27	1-7-5-8-7-2-3-6-4-3	1-6-4-2-7-3-8-5-2-7	8
145.688	n/a	72844	learningBlock_3	33	n/a	n/a	8
145.694	n/a	72847	dot_no1_ON	11	n/a	n/a	8
146.284	n/a	73142	dot_no1_OFF	21	n/a	n/a	8
147.604	n/a	73802	dot_no6_ON	16	n/a	n/a	8
148.184	n/a	74092	dot_no6_OFF	26	n/a	n/a	8
149.504	n/a	74752	dot_no4_ON	14	n/a	n/a	8
150.084	n/a	75042	dot_no4_OFF	24	n/a	n/a	8
151.404	n/a	75702	dot_no2_ON	12	n/a	n/a	8
151.984	n/a	75992	dot_no2_OFF	22	n/a	n/a	8
153.304	n/a	76652	dot_no7_ON	17	n/a	n/a	8
153.886	n/a	76943	dot_no7_OFF	27	n/a	n/a	8
155.204	n/a	77602	dot_no3_ON	13	n/a	n/a	8
155.794	n/a	77897	dot_no3_OFF	23	n/a	n/a	8
157.116	n/a	78558	dot_no8_ON	18	n/a	n/a	8
157.696	n/a	78848	dot_no8_OFF	28	n/a	n/a	8
159.016	n/a	79508	dot_no5_ON	15	n/a	n/a	8
159.596	n/a	79798	dot_no5_OFF	25	n/a	n/a	8
160.916	n/a	80458	dot_no2_ON	12	n/a	n/a	8
161.496	n/a	80748	dot_no2_OFF	22	n/a	n/a	8
162.816	n/a	81408	dot_no7_ON	17	n/a	n/a	8
163.396	n/a	81698	dot_no7_OFF	27	1-6-4-8-3-2-5-2-8-7	1-6-4-2-7-3-8-5-2-7	8
200.688	n/a	100344	learningBlock_4	34	n/a	n/a	8
200.696	n/a	100348	dot_no1_ON	11	n/a	n/a	8
201.276	n/a	100638	dot_no1_OFF	21	n/a	n/a	8
202.596	n/a	101298	dot_no6_ON	16	n/a	n/a	8
203.176	n/a	101588	dot_no6_OFF	26	n/a	n/a	8
204.496	n/a	102248	dot_no4_ON	14	n/a	n/a	8
205.076	n/a	102538	dot_no4_OFF	24	n/a	n/a	8
206.396	n/a	103198	dot_no2_ON	12	n/a	n/a	8
206.986	n/a	103493	dot_no2_OFF	22	n/a	n/a	8
208.306	n/a	104153	dot_no7_ON	17	n/a	n/a	8
208.898	n/a	104449	dot_no7_OFF	27	n/a	n/a	8
210.216	n/a	105108	dot_no3_ON	13	n/a	n/a	8
210.796	n/a	105398	dot_no3_OFF	23	n/a	n/a	8
212.116	n/a	106058	dot_no8_ON	18	n/a	n/a	8
212.696	n/a	106348	dot_no8_OFF	28	n/a	n/a	8
214.016	n/a	107008	dot_no5_ON	15	n/a	n/a	8
214.606	n/a	107303	dot_no5_OFF	25	n/a	n/a	8
215.926	n/a	107963	dot_no2_ON	12	n/a	n/a	8
216.506	n/a	108253	dot_no2_OFF	22	n/a	n/a	8
217.826	n/a	108913	dot_no7_ON	17	n/a	n/a	8
218.406	n/a	109203	dot_no7_OFF	27	1-8-5-6-2-3-1-4-8-7	1-6-4-2-7-3-8-5-2-7	8
245.988	n/a	122994	learningBlock_5	35	n/a	n/a	8
245.998	n/a	122999	dot_no1_ON	11	n/a	n/a	8
246.578	n/a	123289	dot_no1_OFF	21	n/a	n/a	8
247.898	n/a	123949	dot_no6_ON	16	n/a	n/a	8
248.488	n/a	124244	dot_no6_OFF	26	n/a	n/a	8
249.808	n/a	124904	dot_no4_ON	14	n/a	n/a	8
250.388	n/a	125194	dot_no4_OFF	24	n/a	n/a	8
251.708	n/a	125854	dot_no2_ON	12	n/a	n/a	8
252.288	n/a	126144	dot_no2_OFF	22	n/a	n/a	8
253.608	n/a	126804	dot_no7_ON	17	n/a	n/a	8
254.198	n/a	127099	dot_no7_OFF	27	n/a	n/a	8
255.518	n/a	127759	dot_no3_ON	13	n/a	n/a	8
256.098	n/a	128049	dot_no3_OFF	23	n/a	n/a	8
257.418	n/a	128709	dot_no8_ON	18	n/a	n/a	8
257.998	n/a	128999	dot_no8_OFF	28	n/a	n/a	8
259.318	n/a	129659	dot_no5_ON	15	n/a	n/a	8
259.898	n/a	129949	dot_no5_OFF	25	n/a	n/a	8
261.218	n/a	130609	dot_no2_ON	12	n/a	n/a	8
261.798	n/a	130899	dot_no2_OFF	22	n/a	n/a	8
263.118	n/a	131559	dot_no7_ON	17	n/a	n/a	8
263.708	n/a	131854	dot_no7_OFF	27	1-8-6-4-2-5-3-1-8-7	1-6-4-2-7-3-8-5-2-7	8
293.36	n/a	146680	seqLearning_stop	50	n/a	n/a	8
294.321	n/a	147160.5	boundary	boundary	n/a	n/a	8
