onset	duration	sample	value	event_code	user_answer	correct_answer	target_count
0	n/a	0	break cnt	break cnt	n/a	n/a	8
27.424	n/a	13712	seqLearning_start	91	n/a	n/a	8
33.698	n/a	16849	learningBlock_1	31	n/a	n/a	8
33.718	n/a	16859	dot_no1_ON	11	n/a	n/a	8
34.306	n/a	17153	dot_no1_OFF	21	n/a	n/a	8
35.636	n/a	17818	dot_no6_ON	16	n/a	n/a	8
36.216	n/a	18108	dot_no6_OFF	26	n/a	n/a	8
37.536	n/a	18768	dot_no4_ON	14	n/a	n/a	8
38.116	n/a	19058	dot_no4_OFF	24	n/a	n/a	8
39.436	n/a	19718	dot_no2_ON	12	n/a	n/a	8
40.016	n/a	20008	dot_no2_OFF	22	n/a	n/a	8
41.336	n/a	20668	dot_no7_ON	17	n/a	n/a	8
41.916	n/a	20958	dot_no7_OFF	27	n/a	n/a	8
43.236	n/a	21618	dot_no3_ON	13	n/a	n/a	8
43.816	n/a	21908	dot_no3_OFF	23	n/a	n/a	8
45.136	n/a	22568	dot_no8_ON	18	n/a	n/a	8
45.716	n/a	22858	dot_no8_OFF	28	n/a	n/a	8
47.036	n/a	23518	dot_no5_ON	15	n/a	n/a	8
47.616	n/a	23808	dot_no5_OFF	25	n/a	n/a	8
48.936	n/a	24468	dot_no2_ON	12	n/a	n/a	8
49.516	n/a	24758	dot_no2_OFF	22	n/a	n/a	8
50.836	n/a	25418	dot_no7_ON	17	n/a	n/a	8
51.416	n/a	25708	dot_no7_OFF	27	1-6-4-2-7-5-7-7-8-3	1-6-4-2-7-3-8-5-2-7	8
96.486	n/a	48243	learningBlock_2	32	n/a	n/a	8
96.494	n/a	48247	dot_no1_ON	11	n/a	n/a	8
97.074	n/a	48537	dot_no1_OFF	21	n/a	n/a	8
98.394	n/a	49197	dot_no6_ON	16	n/a	n/a	8
98.984	n/a	49492	dot_no6_OFF	26	n/a	n/a	8
100.304	n/a	50152	dot_no4_ON	14	n/a	n/a	8
100.884	n/a	50442	dot_no4_OFF	24	n/a	n/a	8
102.204	n/a	51102	dot_no2_ON	12	n/a	n/a	8
102.784	n/a	51392	dot_no2_OFF	22	n/a	n/a	8
104.104	n/a	52052	dot_no7_ON	17	n/a	n/a	8
104.684	n/a	52342	dot_no7_OFF	27	n/a	n/a	8
106.004	n/a	53002	dot_no3_ON	13	n/a	n/a	8
106.594	n/a	53297	dot_no3_OFF	23	n/a	n/a	8
107.914	n/a	53957	dot_no8_ON	18	n/a	n/a	8
108.494	n/a	54247	dot_no8_OFF	28	n/a	n/a	8
109.814	n/a	54907	dot_no5_ON	15	n/a	n/a	8
110.394	n/a	55197	dot_no5_OFF	25	n/a	n/a	8
111.714	n/a	55857	dot_no2_ON	12	n/a	n/a	8
112.294	n/a	56147	dot_no2_OFF	22	n/a	n/a	8
113.614	n/a	56807	dot_no7_ON	17	n/a	n/a	8
114.194	n/a	57097	dot_no7_OFF	27	1-6-4-2-5-3-7-8-3-7	1-6-4-2-7-3-8-5-2-7	8
152.026	n/a	76013	learningBlock_3	33	n/a	n/a	8
152.034	n/a	76017	dot_no1_ON	11	n/a	n/a	8
152.614	n/a	76307	dot_no1_OFF	21	n/a	n/a	8
153.934	n/a	76967	dot_no6_ON	16	n/a	n/a	8
154.514	n/a	77257	dot_no6_OFF	26	n/a	n/a	8
155.834	n/a	77917	dot_no4_ON	14	n/a	n/a	8
156.414	n/a	78207	dot_no4_OFF	24	n/a	n/a	8
157.734	n/a	78867	dot_no2_ON	12	n/a	n/a	8
158.314	n/a	79157	dot_no2_OFF	22	n/a	n/a	8
159.634	n/a	79817	dot_no7_ON	17	n/a	n/a	8
160.214	n/a	80107	dot_no7_OFF	27	n/a	n/a	8
161.534	n/a	80767	dot_no3_ON	13	n/a	n/a	8
162.114	n/a	81057	dot_no3_OFF	23	n/a	n/a	8
163.434	n/a	81717	dot_no8_ON	18	n/a	n/a	8
164.014	n/a	82007	dot_no8_OFF	28	n/a	n/a	8
165.334	n/a	82667	dot_no5_ON	15	n/a	n/a	8
165.914	n/a	82957	dot_no5_OFF	25	n/a	n/a	8
167.234	n/a	83617	dot_no2_ON	12	n/a	n/a	8
167.814	n/a	83907	dot_no2_OFF	22	n/a	n/a	8
169.134	n/a	84567	dot_no7_ON	17	n/a	n/a	8
169.714	n/a	84857	dot_no7_OFF	27	1-6-4-2-3-7-5-8-3-7	1-6-4-2-7-3-8-5-2-7	8
218.804	n/a	109402	learningBlock_4	34	n/a	n/a	8
218.832	n/a	109416	dot_no1_ON	11	n/a	n/a	8
219.422	n/a	109711	dot_no1_OFF	21	n/a	n/a	8
220.742	n/a	110371	dot_no6_ON	16	n/a	n/a	8
221.322	n/a	110661	dot_no6_OFF	26	n/a	n/a	8
222.642	n/a	111321	dot_no4_ON	14	n/a	n/a	8
223.222	n/a	111611	dot_no4_OFF	24	n/a	n/a	8
224.542	n/a	112271	dot_no2_ON	12	n/a	n/a	8
225.122	n/a	112561	dot_no2_OFF	22	n/a	n/a	8
226.442	n/a	113221	dot_no7_ON	17	n/a	n/a	8
227.022	n/a	113511	dot_no7_OFF	27	n/a	n/a	8
228.344	n/a	114172	dot_no3_ON	13	n/a	n/a	8
228.932	n/a	114466	dot_no3_OFF	23	n/a	n/a	8
230.252	n/a	115126	dot_no8_ON	18	n/a	n/a	8
230.832	n/a	115416	dot_no8_OFF	28	n/a	n/a	8
232.152	n/a	116076	dot_no5_ON	15	n/a	n/a	8
232.742	n/a	116371	dot_no5_OFF	25	n/a	n/a	8
234.062	n/a	117031	dot_no2_ON	12	n/a	n/a	8
234.642	n/a	117321	dot_no2_OFF	22	n/a	n/a	8
235.962	n/a	117981	dot_no7_ON	17	n/a	n/a	8
236.542	n/a	118271	dot_no7_OFF	27	1-6-4-2-7-3-8-5-2-7	1-6-4-2-7-3-8-5-2-7	8
266.762	n/a	133381	learningBlock_5	35	n/a	n/a	8
266.772	n/a	133386	dot_no1_ON	11	n/a	n/a	8
267.352	n/a	133676	dot_no1_OFF	21	n/a	n/a	8
268.672	n/a	134336	dot_no6_ON	16	n/a	n/a	8
269.252	n/a	134626	dot_no6_OFF	26	n/a	n/a	8
270.572	n/a	135286	dot_no4_ON	14	n/a	n/a	8
271.152	n/a	135576	dot_no4_OFF	24	n/a	n/a	8
272.472	n/a	136236	dot_no2_ON	12	n/a	n/a	8
273.052	n/a	136526	dot_no2_OFF	22	n/a	n/a	8
274.372	n/a	137186	dot_no7_ON	17	n/a	n/a	8
274.952	n/a	137476	dot_no7_OFF	27	n/a	n/a	8
276.272	n/a	138136	dot_no3_ON	13	n/a	n/a	8
276.852	n/a	138426	dot_no3_OFF	23	n/a	n/a	8
278.172	n/a	139086	dot_no8_ON	18	n/a	n/a	8
278.752	n/a	139376	dot_no8_OFF	28	n/a	n/a	8
280.072	n/a	140036	dot_no5_ON	15	n/a	n/a	8
280.652	n/a	140326	dot_no5_OFF	25	n/a	n/a	8
281.972	n/a	140986	dot_no2_ON	12	n/a	n/a	8
282.55	n/a	141275	dot_no2_OFF	22	n/a	n/a	8
283.87	n/a	141935	dot_no7_ON	17	n/a	n/a	8
284.46	n/a	142230	dot_no7_OFF	27	1-6-4-2-7-3-8-5-2-7	1-6-4-2-7-3-8-5-2-7	8
303.062	n/a	151531	seqLearning_stop	50	n/a	n/a	8
303.717	n/a	151858.5	boundary	boundary	n/a	n/a	8
