onset	duration	sample	value	event_code	user_answer	correct_answer	target_count
0	n/a	0	break cnt	break cnt	n/a	n/a	8
58.922	n/a	29461	seqLearning_start	91	n/a	n/a	8
65.186	n/a	32593	learningBlock_1	31	n/a	n/a	8
65.214	n/a	32607	dot_no1_ON	11	n/a	n/a	8
65.804	n/a	32902	dot_no1_OFF	21	n/a	n/a	8
67.122	n/a	33561	dot_no6_ON	16	n/a	n/a	8
67.702	n/a	33851	dot_no6_OFF	26	n/a	n/a	8
69.022	n/a	34511	dot_no4_ON	14	n/a	n/a	8
69.602	n/a	34801	dot_no4_OFF	24	n/a	n/a	8
70.922	n/a	35461	dot_no2_ON	12	n/a	n/a	8
71.502	n/a	35751	dot_no2_OFF	22	n/a	n/a	8
72.824	n/a	36412	dot_no7_ON	17	n/a	n/a	8
73.404	n/a	36702	dot_no7_OFF	27	n/a	n/a	8
74.724	n/a	37362	dot_no3_ON	13	n/a	n/a	8
75.304	n/a	37652	dot_no3_OFF	23	n/a	n/a	8
76.624	n/a	38312	dot_no8_ON	18	n/a	n/a	8
77.204	n/a	38602	dot_no8_OFF	28	n/a	n/a	8
78.524	n/a	39262	dot_no5_ON	15	n/a	n/a	8
79.104	n/a	39552	dot_no5_OFF	25	n/a	n/a	8
80.424	n/a	40212	dot_no2_ON	12	n/a	n/a	8
81.014	n/a	40507	dot_no2_OFF	22	n/a	n/a	8
82.334	n/a	41167	dot_no7_ON	17	n/a	n/a	8
82.914	n/a	41457	dot_no7_OFF	27	1-5-3-6-4-8-7-2-7-3	1-6-4-2-7-3-8-5-2-7	8
130.766	n/a	65383	learningBlock_2	32	n/a	n/a	8
130.774	n/a	65387	dot_no1_ON	11	n/a	n/a	8
131.354	n/a	65677	dot_no1_OFF	21	n/a	n/a	8
132.674	n/a	66337	dot_no6_ON	16	n/a	n/a	8
133.254	n/a	66627	dot_no6_OFF	26	n/a	n/a	8
134.574	n/a	67287	dot_no4_ON	14	n/a	n/a	8
135.154	n/a	67577	dot_no4_OFF	24	n/a	n/a	8
136.474	n/a	68237	dot_no2_ON	12	n/a	n/a	8
137.054	n/a	68527	dot_no2_OFF	22	n/a	n/a	8
138.374	n/a	69187	dot_no7_ON	17	n/a	n/a	8
138.954	n/a	69477	dot_no7_OFF	27	n/a	n/a	8
140.274	n/a	70137	dot_no3_ON	13	n/a	n/a	8
140.854	n/a	70427	dot_no3_OFF	23	n/a	n/a	8
142.174	n/a	71087	dot_no8_ON	18	n/a	n/a	8
142.754	n/a	71377	dot_no8_OFF	28	n/a	n/a	8
144.074	n/a	72037	dot_no5_ON	15	n/a	n/a	8
144.654	n/a	72327	dot_no5_OFF	25	n/a	n/a	8
145.974	n/a	72987	dot_no2_ON	12	n/a	n/a	8
146.554	n/a	73277	dot_no2_OFF	22	n/a	n/a	8
147.874	n/a	73937	dot_no7_ON	17	n/a	n/a	8
148.454	n/a	74227	dot_no7_OFF	27	1-5-3-7-4-7-2-8-4-6	1-6-4-2-7-3-8-5-2-7	8
194.598	n/a	97299	learningBlock_3	33	n/a	n/a	8
194.606	n/a	97303	dot_no1_ON	11	n/a	n/a	8
195.186	n/a	97593	dot_no1_OFF	21	n/a	n/a	8
196.506	n/a	98253	dot_no6_ON	16	n/a	n/a	8
197.086	n/a	98543	dot_no6_OFF	26	n/a	n/a	8
198.406	n/a	99203	dot_no4_ON	14	n/a	n/a	8
198.986	n/a	99493	dot_no4_OFF	24	n/a	n/a	8
200.306	n/a	100153	dot_no2_ON	12	n/a	n/a	8
200.886	n/a	100443	dot_no2_OFF	22	n/a	n/a	8
202.206	n/a	101103	dot_no7_ON	17	n/a	n/a	8
202.786	n/a	101393	dot_no7_OFF	27	n/a	n/a	8
204.106	n/a	102053	dot_no3_ON	13	n/a	n/a	8
204.686	n/a	102343	dot_no3_OFF	23	n/a	n/a	8
206.006	n/a	103003	dot_no8_ON	18	n/a	n/a	8
206.586	n/a	103293	dot_no8_OFF	28	n/a	n/a	8
207.906	n/a	103953	dot_no5_ON	15	n/a	n/a	8
208.486	n/a	104243	dot_no5_OFF	25	n/a	n/a	8
209.806	n/a	104903	dot_no2_ON	12	n/a	n/a	8
210.386	n/a	105193	dot_no2_OFF	22	n/a	n/a	8
211.706	n/a	105853	dot_no7_ON	17	n/a	n/a	8
212.286	n/a	106143	dot_no7_OFF	27	1-6-4-7-5-2-7-3-8-5	1-6-4-2-7-3-8-5-2-7	8
246.748	n/a	123374	learningBlock_4	34	n/a	n/a	8
246.756	n/a	123378	dot_no1_ON	11	n/a	n/a	8
247.336	n/a	123668	dot_no1_OFF	21	n/a	n/a	8
248.656	n/a	124328	dot_no6_ON	16	n/a	n/a	8
249.246	n/a	124623	dot_no6_OFF	26	n/a	n/a	8
250.568	n/a	125284	dot_no4_ON	14	n/a	n/a	8
251.148	n/a	125574	dot_no4_OFF	24	n/a	n/a	8
252.468	n/a	126234	dot_no2_ON	12	n/a	n/a	8
253.048	n/a	126524	dot_no2_OFF	22	n/a	n/a	8
254.368	n/a	127184	dot_no7_ON	17	n/a	n/a	8
254.948	n/a	127474	dot_no7_OFF	27	n/a	n/a	8
256.268	n/a	128134	dot_no3_ON	13	n/a	n/a	8
256.848	n/a	128424	dot_no3_OFF	23	n/a	n/a	8
258.168	n/a	129084	dot_no8_ON	18	n/a	n/a	8
258.748	n/a	129374	dot_no8_OFF	28	n/a	n/a	8
260.068	n/a	130034	dot_no5_ON	15	n/a	n/a	8
260.658	n/a	130329	dot_no5_OFF	25	n/a	n/a	8
261.978	n/a	130989	dot_no2_ON	12	n/a	n/a	8
262.558	n/a	131279	dot_no2_OFF	22	n/a	n/a	8
263.878	n/a	131939	dot_no7_ON	17	n/a	n/a	8
264.458	n/a	132229	dot_no7_OFF	27	1-6-4-7-5-3-5-2-8-3	1-6-4-2-7-3-8-5-2-7	8
299.42	n/a	149710	learningBlock_5	35	n/a	n/a	8
299.428	n/a	149714	dot_no1_ON	11	n/a	n/a	8
300.008	n/a	150004	dot_no1_OFF	21	n/a	n/a	8
301.328	n/a	150664	dot_no6_ON	16	n/a	n/a	8
301.908	n/a	150954	dot_no6_OFF	26	n/a	n/a	8
303.228	n/a	151614	dot_no4_ON	14	n/a	n/a	8
303.808	n/a	151904	dot_no4_OFF	24	n/a	n/a	8
305.128	n/a	152564	dot_no2_ON	12	n/a	n/a	8
305.708	n/a	152854	dot_no2_OFF	22	n/a	n/a	8
307.028	n/a	153514	dot_no7_ON	17	n/a	n/a	8
307.608	n/a	153804	dot_no7_OFF	27	n/a	n/a	8
308.928	n/a	154464	dot_no3_ON	13	n/a	n/a	8
309.508	n/a	154754	dot_no3_OFF	23	n/a	n/a	8
310.83	n/a	155415	dot_no8_ON	18	n/a	n/a	8
311.418	n/a	155709	dot_no8_OFF	28	n/a	n/a	8
312.738	n/a	156369	dot_no5_ON	15	n/a	n/a	8
313.318	n/a	156659	dot_no5_OFF	25	n/a	n/a	8
314.638	n/a	157319	dot_no2_ON	12	n/a	n/a	8
315.218	n/a	157609	dot_no2_OFF	22	n/a	n/a	8
316.538	n/a	158269	dot_no7_ON	17	n/a	n/a	8
317.128	n/a	158564	dot_no7_OFF	27	1-6-4-7-3-5-7-8-2-4	1-6-4-2-7-3-8-5-2-7	8
345.91	n/a	172955	seqLearning_stop	50	n/a	n/a	8
346.821	n/a	173410.5	boundary	boundary	n/a	n/a	8
