onset	duration	sample	value	event_code	user_answer	correct_answer	target_count
0	n/a	0	break cnt	break cnt	n/a	n/a	8
249.136	n/a	124568	seqLearning_start	91	n/a	n/a	8
255.376	n/a	127688	learningBlock_1	31	n/a	n/a	8
255.406	n/a	127703	dot_no1_ON	11	n/a	n/a	8
255.996	n/a	127998	dot_no1_OFF	21	n/a	n/a	8
257.316	n/a	128658	dot_no6_ON	16	n/a	n/a	8
257.896	n/a	128948	dot_no6_OFF	26	n/a	n/a	8
259.216	n/a	129608	dot_no4_ON	14	n/a	n/a	8
259.796	n/a	129898	dot_no4_OFF	24	n/a	n/a	8
261.116	n/a	130558	dot_no2_ON	12	n/a	n/a	8
261.696	n/a	130848	dot_no2_OFF	22	n/a	n/a	8
263.026	n/a	131513	dot_no7_ON	17	n/a	n/a	8
263.606	n/a	131803	dot_no7_OFF	27	n/a	n/a	8
264.926	n/a	132463	dot_no3_ON	13	n/a	n/a	8
265.506	n/a	132753	dot_no3_OFF	23	n/a	n/a	8
266.826	n/a	133413	dot_no8_ON	18	n/a	n/a	8
267.406	n/a	133703	dot_no8_OFF	28	n/a	n/a	8
268.726	n/a	134363	dot_no5_ON	15	n/a	n/a	8
269.306	n/a	134653	dot_no5_OFF	25	n/a	n/a	8
270.626	n/a	135313	dot_no2_ON	12	n/a	n/a	8
271.206	n/a	135603	dot_no2_OFF	22	n/a	n/a	8
272.526	n/a	136263	dot_no7_ON	17	n/a	n/a	8
273.106	n/a	136553	dot_no7_OFF	27	1-6-2-5-8-3-7-4-8-3	1-6-4-2-7-3-8-5-2-7	8
346.108	n/a	173054	learningBlock_2	32	n/a	n/a	8
346.116	n/a	173058	dot_no1_ON	11	n/a	n/a	8
346.698	n/a	173349	dot_no1_OFF	21	n/a	n/a	8
348.018	n/a	174009	dot_no6_ON	16	n/a	n/a	8
348.598	n/a	174299	dot_no6_OFF	26	n/a	n/a	8
349.918	n/a	174959	dot_no4_ON	14	n/a	n/a	8
350.498	n/a	175249	dot_no4_OFF	24	n/a	n/a	8
351.818	n/a	175909	dot_no2_ON	12	n/a	n/a	8
352.398	n/a	176199	dot_no2_OFF	22	n/a	n/a	8
353.718	n/a	176859	dot_no7_ON	17	n/a	n/a	8
354.298	n/a	177149	dot_no7_OFF	27	n/a	n/a	8
355.618	n/a	177809	dot_no3_ON	13	n/a	n/a	8
356.198	n/a	178099	dot_no3_OFF	23	n/a	n/a	8
357.518	n/a	178759	dot_no8_ON	18	n/a	n/a	8
358.098	n/a	179049	dot_no8_OFF	28	n/a	n/a	8
359.418	n/a	179709	dot_no5_ON	15	n/a	n/a	8
359.998	n/a	179999	dot_no5_OFF	25	n/a	n/a	8
361.318	n/a	180659	dot_no2_ON	12	n/a	n/a	8
361.898	n/a	180949	dot_no2_OFF	22	n/a	n/a	8
363.218	n/a	181609	dot_no7_ON	17	n/a	n/a	8
363.798	n/a	181899	dot_no7_OFF	27	1-6-4-7-2-5-8-3-3-8	1-6-4-2-7-3-8-5-2-7	8
419.722	n/a	209861	learningBlock_3	33	n/a	n/a	8
419.728	n/a	209864	dot_no1_ON	11	n/a	n/a	8
420.308	n/a	210154	dot_no1_OFF	21	n/a	n/a	8
421.628	n/a	210814	dot_no6_ON	16	n/a	n/a	8
422.208	n/a	211104	dot_no6_OFF	26	n/a	n/a	8
423.528	n/a	211764	dot_no4_ON	14	n/a	n/a	8
424.118	n/a	212059	dot_no4_OFF	24	n/a	n/a	8
425.438	n/a	212719	dot_no2_ON	12	n/a	n/a	8
426.018	n/a	213009	dot_no2_OFF	22	n/a	n/a	8
427.388	n/a	213694	dot_no7_ON	17	n/a	n/a	8
427.978	n/a	213989	dot_no7_OFF	27	n/a	n/a	8
429.298	n/a	214649	dot_no3_ON	13	n/a	n/a	8
429.88	n/a	214940	dot_no3_OFF	23	n/a	n/a	8
431.2	n/a	215600	dot_no8_ON	18	n/a	n/a	8
431.78	n/a	215890	dot_no8_OFF	28	n/a	n/a	8
433.1	n/a	216550	dot_no5_ON	15	n/a	n/a	8
433.68	n/a	216840	dot_no5_OFF	25	n/a	n/a	8
435	n/a	217500	dot_no2_ON	12	n/a	n/a	8
435.59	n/a	217795	dot_no2_OFF	22	n/a	n/a	8
436.91	n/a	218455	dot_no7_ON	17	n/a	n/a	8
437.49	n/a	218745	dot_no7_OFF	27	1-6-4-2-7-5-8-3-5-7	1-6-4-2-7-3-8-5-2-7	8
469.372	n/a	234686	learningBlock_4	34	n/a	n/a	8
469.38	n/a	234690	dot_no1_ON	11	n/a	n/a	8
469.96	n/a	234980	dot_no1_OFF	21	n/a	n/a	8
471.28	n/a	235640	dot_no6_ON	16	n/a	n/a	8
471.86	n/a	235930	dot_no6_OFF	26	n/a	n/a	8
473.18	n/a	236590	dot_no4_ON	14	n/a	n/a	8
473.77	n/a	236885	dot_no4_OFF	24	n/a	n/a	8
475.09	n/a	237545	dot_no2_ON	12	n/a	n/a	8
475.67	n/a	237835	dot_no2_OFF	22	n/a	n/a	8
476.99	n/a	238495	dot_no7_ON	17	n/a	n/a	8
477.57	n/a	238785	dot_no7_OFF	27	n/a	n/a	8
478.89	n/a	239445	dot_no3_ON	13	n/a	n/a	8
479.48	n/a	239740	dot_no3_OFF	23	n/a	n/a	8
480.8	n/a	240400	dot_no8_ON	18	n/a	n/a	8
481.38	n/a	240690	dot_no8_OFF	28	n/a	n/a	8
482.7	n/a	241350	dot_no5_ON	15	n/a	n/a	8
483.28	n/a	241640	dot_no5_OFF	25	n/a	n/a	8
484.6	n/a	242300	dot_no2_ON	12	n/a	n/a	8
485.19	n/a	242595	dot_no2_OFF	22	n/a	n/a	8
486.51	n/a	243255	dot_no7_ON	17	n/a	n/a	8
487.09	n/a	243545	dot_no7_OFF	27	1-6-4-2-7-5-8-3-7-5	1-6-4-2-7-3-8-5-2-7	8
515.194	n/a	257597	learningBlock_5	35	n/a	n/a	8
515.2	n/a	257600	dot_no1_ON	11	n/a	n/a	8
515.78	n/a	257890	dot_no1_OFF	21	n/a	n/a	8
517.1	n/a	258550	dot_no6_ON	16	n/a	n/a	8
517.682	n/a	258841	dot_no6_OFF	26	n/a	n/a	8
519.012	n/a	259506	dot_no4_ON	14	n/a	n/a	8
519.592	n/a	259796	dot_no4_OFF	24	n/a	n/a	8
520.912	n/a	260456	dot_no2_ON	12	n/a	n/a	8
521.492	n/a	260746	dot_no2_OFF	22	n/a	n/a	8
522.812	n/a	261406	dot_no7_ON	17	n/a	n/a	8
523.392	n/a	261696	dot_no7_OFF	27	n/a	n/a	8
524.712	n/a	262356	dot_no3_ON	13	n/a	n/a	8
525.292	n/a	262646	dot_no3_OFF	23	n/a	n/a	8
526.612	n/a	263306	dot_no8_ON	18	n/a	n/a	8
527.192	n/a	263596	dot_no8_OFF	28	n/a	n/a	8
528.512	n/a	264256	dot_no5_ON	15	n/a	n/a	8
529.102	n/a	264551	dot_no5_OFF	25	n/a	n/a	8
530.422	n/a	265211	dot_no2_ON	12	n/a	n/a	8
531.002	n/a	265501	dot_no2_OFF	22	n/a	n/a	8
532.322	n/a	266161	dot_no7_ON	17	n/a	n/a	8
532.902	n/a	266451	dot_no7_OFF	27	1-6-4-2-7-3-5-8-5-7	1-6-4-2-7-3-8-5-2-7	8
562.814	n/a	281407	seqLearning_stop	50	n/a	n/a	8
563.749	n/a	281874.5	boundary	boundary	n/a	n/a	8
