onset	duration	sample	value	event_code	user_answer	correct_answer	target_count
0	n/a	0	break cnt	break cnt	n/a	n/a	8
28.158	n/a	14079	seqLearning_start	91	n/a	n/a	8
34.434	n/a	17217	learningBlock_1	31	n/a	n/a	8
34.466	n/a	17233	dot_no1_ON	11	n/a	n/a	8
35.054	n/a	17527	dot_no1_OFF	21	n/a	n/a	8
36.374	n/a	18187	dot_no6_ON	16	n/a	n/a	8
36.964	n/a	18482	dot_no6_OFF	26	n/a	n/a	8
38.284	n/a	19142	dot_no4_ON	14	n/a	n/a	8
38.864	n/a	19432	dot_no4_OFF	24	n/a	n/a	8
40.184	n/a	20092	dot_no2_ON	12	n/a	n/a	8
40.764	n/a	20382	dot_no2_OFF	22	n/a	n/a	8
42.084	n/a	21042	dot_no7_ON	17	n/a	n/a	8
42.664	n/a	21332	dot_no7_OFF	27	n/a	n/a	8
43.984	n/a	21992	dot_no3_ON	13	n/a	n/a	8
44.564	n/a	22282	dot_no3_OFF	23	n/a	n/a	8
45.884	n/a	22942	dot_no8_ON	18	n/a	n/a	8
46.464	n/a	23232	dot_no8_OFF	28	n/a	n/a	8
47.784	n/a	23892	dot_no5_ON	15	n/a	n/a	8
48.364	n/a	24182	dot_no5_OFF	25	n/a	n/a	8
49.684	n/a	24842	dot_no2_ON	12	n/a	n/a	8
50.274	n/a	25137	dot_no2_OFF	22	n/a	n/a	8
51.594	n/a	25797	dot_no7_ON	17	n/a	n/a	8
52.174	n/a	26087	dot_no7_OFF	27	1-3-4-6-7-2-8-5-7-5	1-6-4-2-7-3-8-5-2-7	8
106.546	n/a	53273	learningBlock_2	32	n/a	n/a	8
106.552	n/a	53276	dot_no1_ON	11	n/a	n/a	8
107.132	n/a	53566	dot_no1_OFF	21	n/a	n/a	8
108.452	n/a	54226	dot_no6_ON	16	n/a	n/a	8
109.042	n/a	54521	dot_no6_OFF	26	n/a	n/a	8
110.362	n/a	55181	dot_no4_ON	14	n/a	n/a	8
110.942	n/a	55471	dot_no4_OFF	24	n/a	n/a	8
112.262	n/a	56131	dot_no2_ON	12	n/a	n/a	8
112.842	n/a	56421	dot_no2_OFF	22	n/a	n/a	8
114.162	n/a	57081	dot_no7_ON	17	n/a	n/a	8
114.752	n/a	57376	dot_no7_OFF	27	n/a	n/a	8
116.072	n/a	58036	dot_no3_ON	13	n/a	n/a	8
116.652	n/a	58326	dot_no3_OFF	23	n/a	n/a	8
117.972	n/a	58986	dot_no8_ON	18	n/a	n/a	8
118.552	n/a	59276	dot_no8_OFF	28	n/a	n/a	8
119.872	n/a	59936	dot_no5_ON	15	n/a	n/a	8
120.452	n/a	60226	dot_no5_OFF	25	n/a	n/a	8
121.772	n/a	60886	dot_no2_ON	12	n/a	n/a	8
122.362	n/a	61181	dot_no2_OFF	22	n/a	n/a	8
123.682	n/a	61841	dot_no7_ON	17	n/a	n/a	8
124.262	n/a	62131	dot_no7_OFF	27	1-6-4-2-7-5-3-8-7-6	1-6-4-2-7-3-8-5-2-7	8
151.214	n/a	75607	learningBlock_3	33	n/a	n/a	8
151.222	n/a	75611	dot_no1_ON	11	n/a	n/a	8
151.802	n/a	75901	dot_no1_OFF	21	n/a	n/a	8
153.122	n/a	76561	dot_no6_ON	16	n/a	n/a	8
153.712	n/a	76856	dot_no6_OFF	26	n/a	n/a	8
155.032	n/a	77516	dot_no4_ON	14	n/a	n/a	8
155.612	n/a	77806	dot_no4_OFF	24	n/a	n/a	8
156.932	n/a	78466	dot_no2_ON	12	n/a	n/a	8
157.512	n/a	78756	dot_no2_OFF	22	n/a	n/a	8
158.832	n/a	79416	dot_no7_ON	17	n/a	n/a	8
159.412	n/a	79706	dot_no7_OFF	27	n/a	n/a	8
160.732	n/a	80366	dot_no3_ON	13	n/a	n/a	8
161.312	n/a	80656	dot_no3_OFF	23	n/a	n/a	8
162.642	n/a	81321	dot_no8_ON	18	n/a	n/a	8
163.222	n/a	81611	dot_no8_OFF	28	n/a	n/a	8
164.542	n/a	82271	dot_no5_ON	15	n/a	n/a	8
165.122	n/a	82561	dot_no5_OFF	25	n/a	n/a	8
166.442	n/a	83221	dot_no2_ON	12	n/a	n/a	8
167.022	n/a	83511	dot_no2_OFF	22	n/a	n/a	8
168.34	n/a	84170	dot_no7_ON	17	n/a	n/a	8
168.922	n/a	84461	dot_no7_OFF	27	6-4-2-5-1-7-3-8-7-6	1-6-4-2-7-3-8-5-2-7	8
201.962	n/a	100981	learningBlock_4	34	n/a	n/a	8
201.97	n/a	100985	dot_no1_ON	11	n/a	n/a	8
202.55	n/a	101275	dot_no1_OFF	21	n/a	n/a	8
203.87	n/a	101935	dot_no6_ON	16	n/a	n/a	8
204.45	n/a	102225	dot_no6_OFF	26	n/a	n/a	8
205.77	n/a	102885	dot_no4_ON	14	n/a	n/a	8
206.35	n/a	103175	dot_no4_OFF	24	n/a	n/a	8
207.67	n/a	103835	dot_no2_ON	12	n/a	n/a	8
208.26	n/a	104130	dot_no2_OFF	22	n/a	n/a	8
209.58	n/a	104790	dot_no7_ON	17	n/a	n/a	8
210.162	n/a	105081	dot_no7_OFF	27	n/a	n/a	8
211.48	n/a	105740	dot_no3_ON	13	n/a	n/a	8
212.06	n/a	106030	dot_no3_OFF	23	n/a	n/a	8
213.38	n/a	106690	dot_no8_ON	18	n/a	n/a	8
213.97	n/a	106985	dot_no8_OFF	28	n/a	n/a	8
215.29	n/a	107645	dot_no5_ON	15	n/a	n/a	8
215.88	n/a	107940	dot_no5_OFF	25	n/a	n/a	8
217.2	n/a	108600	dot_no2_ON	12	n/a	n/a	8
217.78	n/a	108890	dot_no2_OFF	22	n/a	n/a	8
219.1	n/a	109550	dot_no7_ON	17	n/a	n/a	8
219.68	n/a	109840	dot_no7_OFF	27	7-1-1-1-2-4-5-5-6-8	1-6-4-2-7-3-8-5-2-7	8
253.382	n/a	126691	learningBlock_5	35	n/a	n/a	8
253.39	n/a	126695	dot_no1_ON	11	n/a	n/a	8
253.98	n/a	126990	dot_no1_OFF	21	n/a	n/a	8
255.3	n/a	127650	dot_no6_ON	16	n/a	n/a	8
255.88	n/a	127940	dot_no6_OFF	26	n/a	n/a	8
257.2	n/a	128600	dot_no4_ON	14	n/a	n/a	8
257.78	n/a	128890	dot_no4_OFF	24	n/a	n/a	8
259.1	n/a	129550	dot_no2_ON	12	n/a	n/a	8
259.68	n/a	129840	dot_no2_OFF	22	n/a	n/a	8
261	n/a	130500	dot_no7_ON	17	n/a	n/a	8
261.58	n/a	130790	dot_no7_OFF	27	n/a	n/a	8
262.9	n/a	131450	dot_no3_ON	13	n/a	n/a	8
263.48	n/a	131740	dot_no3_OFF	23	n/a	n/a	8
264.8	n/a	132400	dot_no8_ON	18	n/a	n/a	8
265.38	n/a	132690	dot_no8_OFF	28	n/a	n/a	8
266.7	n/a	133350	dot_no5_ON	15	n/a	n/a	8
267.29	n/a	133645	dot_no5_OFF	25	n/a	n/a	8
268.61	n/a	134305	dot_no2_ON	12	n/a	n/a	8
269.19	n/a	134595	dot_no2_OFF	22	n/a	n/a	8
270.508	n/a	135254	dot_no7_ON	17	n/a	n/a	8
271.1	n/a	135550	dot_no7_OFF	27	7-5-1-6-3-4-8-2-5-6	1-6-4-2-7-3-8-5-2-7	8
303.61	n/a	151805	seqLearning_stop	50	n/a	n/a	8
304.669	n/a	152334.5	boundary	boundary	n/a	n/a	8
