onset	duration	sample	value	event_code	user_answer	correct_answer	target_count
0	n/a	0	break cnt	break cnt	n/a	n/a	8
60.502	n/a	30251	seqLearning_start	91	n/a	n/a	8
66.768	n/a	33384	learningBlock_1	31	n/a	n/a	8
66.796	n/a	33398	dot_no1_ON	11	n/a	n/a	8
67.386	n/a	33693	dot_no1_OFF	21	n/a	n/a	8
68.704	n/a	34352	dot_no6_ON	16	n/a	n/a	8
69.284	n/a	34642	dot_no6_OFF	26	n/a	n/a	8
70.604	n/a	35302	dot_no4_ON	14	n/a	n/a	8
71.184	n/a	35592	dot_no4_OFF	24	n/a	n/a	8
72.504	n/a	36252	dot_no2_ON	12	n/a	n/a	8
73.094	n/a	36547	dot_no2_OFF	22	n/a	n/a	8
74.414	n/a	37207	dot_no7_ON	17	n/a	n/a	8
74.996	n/a	37498	dot_no7_OFF	27	n/a	n/a	8
76.316	n/a	38158	dot_no3_ON	13	n/a	n/a	8
76.896	n/a	38448	dot_no3_OFF	23	n/a	n/a	8
78.216	n/a	39108	dot_no8_ON	18	n/a	n/a	8
78.796	n/a	39398	dot_no8_OFF	28	n/a	n/a	8
80.116	n/a	40058	dot_no5_ON	15	n/a	n/a	8
80.696	n/a	40348	dot_no5_OFF	25	n/a	n/a	8
82.016	n/a	41008	dot_no2_ON	12	n/a	n/a	8
82.596	n/a	41298	dot_no2_OFF	22	n/a	n/a	8
83.916	n/a	41958	dot_no7_ON	17	n/a	n/a	8
84.496	n/a	42248	dot_no7_OFF	27	1-6-4-2-3-7-8-5-3-7	1-6-4-2-7-3-8-5-2-7	8
131.52	n/a	65760	learningBlock_2	32	n/a	n/a	8
131.526	n/a	65763	dot_no1_ON	11	n/a	n/a	8
132.116	n/a	66058	dot_no1_OFF	21	n/a	n/a	8
133.436	n/a	66718	dot_no6_ON	16	n/a	n/a	8
134.016	n/a	67008	dot_no6_OFF	26	n/a	n/a	8
135.336	n/a	67668	dot_no4_ON	14	n/a	n/a	8
135.916	n/a	67958	dot_no4_OFF	24	n/a	n/a	8
137.236	n/a	68618	dot_no2_ON	12	n/a	n/a	8
137.816	n/a	68908	dot_no2_OFF	22	n/a	n/a	8
139.136	n/a	69568	dot_no7_ON	17	n/a	n/a	8
139.716	n/a	69858	dot_no7_OFF	27	n/a	n/a	8
141.036	n/a	70518	dot_no3_ON	13	n/a	n/a	8
141.616	n/a	70808	dot_no3_OFF	23	n/a	n/a	8
142.936	n/a	71468	dot_no8_ON	18	n/a	n/a	8
143.516	n/a	71758	dot_no8_OFF	28	n/a	n/a	8
144.836	n/a	72418	dot_no5_ON	15	n/a	n/a	8
145.416	n/a	72708	dot_no5_OFF	25	n/a	n/a	8
146.736	n/a	73368	dot_no2_ON	12	n/a	n/a	8
147.316	n/a	73658	dot_no2_OFF	22	n/a	n/a	8
148.636	n/a	74318	dot_no7_ON	17	n/a	n/a	8
149.216	n/a	74608	dot_no7_OFF	27	6-4-7-3-8-5-3-7-2-1	1-6-4-2-7-3-8-5-2-7	8
188.93	n/a	94465	learningBlock_3	33	n/a	n/a	8
188.938	n/a	94469	dot_no1_ON	11	n/a	n/a	8
189.518	n/a	94759	dot_no1_OFF	21	n/a	n/a	8
190.838	n/a	95419	dot_no6_ON	16	n/a	n/a	8
191.428	n/a	95714	dot_no6_OFF	26	n/a	n/a	8
192.748	n/a	96374	dot_no4_ON	14	n/a	n/a	8
193.328	n/a	96664	dot_no4_OFF	24	n/a	n/a	8
194.648	n/a	97324	dot_no2_ON	12	n/a	n/a	8
195.238	n/a	97619	dot_no2_OFF	22	n/a	n/a	8
196.558	n/a	98279	dot_no7_ON	17	n/a	n/a	8
197.138	n/a	98569	dot_no7_OFF	27	n/a	n/a	8
198.458	n/a	99229	dot_no3_ON	13	n/a	n/a	8
199.048	n/a	99524	dot_no3_OFF	23	n/a	n/a	8
200.368	n/a	100184	dot_no8_ON	18	n/a	n/a	8
200.948	n/a	100474	dot_no8_OFF	28	n/a	n/a	8
202.268	n/a	101134	dot_no5_ON	15	n/a	n/a	8
202.848	n/a	101424	dot_no5_OFF	25	n/a	n/a	8
204.168	n/a	102084	dot_no2_ON	12	n/a	n/a	8
204.748	n/a	102374	dot_no2_OFF	22	n/a	n/a	8
206.068	n/a	103034	dot_no7_ON	17	n/a	n/a	8
206.658	n/a	103329	dot_no7_OFF	27	1-6-5-2-3-7-8-4-5-8	1-6-4-2-7-3-8-5-2-7	8
242.35	n/a	121175	learningBlock_4	34	n/a	n/a	8
242.358	n/a	121179	dot_no1_ON	11	n/a	n/a	8
242.938	n/a	121469	dot_no1_OFF	21	n/a	n/a	8
244.258	n/a	122129	dot_no6_ON	16	n/a	n/a	8
244.838	n/a	122419	dot_no6_OFF	26	n/a	n/a	8
246.158	n/a	123079	dot_no4_ON	14	n/a	n/a	8
246.738	n/a	123369	dot_no4_OFF	24	n/a	n/a	8
248.06	n/a	124030	dot_no2_ON	12	n/a	n/a	8
248.648	n/a	124324	dot_no2_OFF	22	n/a	n/a	8
249.968	n/a	124984	dot_no7_ON	17	n/a	n/a	8
250.56	n/a	125280	dot_no7_OFF	27	n/a	n/a	8
251.878	n/a	125939	dot_no3_ON	13	n/a	n/a	8
252.46	n/a	126230	dot_no3_OFF	23	n/a	n/a	8
253.78	n/a	126890	dot_no8_ON	18	n/a	n/a	8
254.36	n/a	127180	dot_no8_OFF	28	n/a	n/a	8
255.68	n/a	127840	dot_no5_ON	15	n/a	n/a	8
256.26	n/a	128130	dot_no5_OFF	25	n/a	n/a	8
257.58	n/a	128790	dot_no2_ON	12	n/a	n/a	8
258.16	n/a	129080	dot_no2_OFF	22	n/a	n/a	8
259.48	n/a	129740	dot_no7_ON	17	n/a	n/a	8
260.06	n/a	130030	dot_no7_OFF	27	1-6-7-3-8-5-4-2-7-1	1-6-4-2-7-3-8-5-2-7	8
297.472	n/a	148736	learningBlock_5	35	n/a	n/a	8
297.48	n/a	148740	dot_no1_ON	11	n/a	n/a	8
298.07	n/a	149035	dot_no1_OFF	21	n/a	n/a	8
299.39	n/a	149695	dot_no6_ON	16	n/a	n/a	8
299.97	n/a	149985	dot_no6_OFF	26	n/a	n/a	8
301.29	n/a	150645	dot_no4_ON	14	n/a	n/a	8
301.87	n/a	150935	dot_no4_OFF	24	n/a	n/a	8
303.19	n/a	151595	dot_no2_ON	12	n/a	n/a	8
303.77	n/a	151885	dot_no2_OFF	22	n/a	n/a	8
305.09	n/a	152545	dot_no7_ON	17	n/a	n/a	8
305.67	n/a	152835	dot_no7_OFF	27	n/a	n/a	8
306.99	n/a	153495	dot_no3_ON	13	n/a	n/a	8
307.58	n/a	153790	dot_no3_OFF	23	n/a	n/a	8
308.9	n/a	154450	dot_no8_ON	18	n/a	n/a	8
309.48	n/a	154740	dot_no8_OFF	28	n/a	n/a	8
310.8	n/a	155400	dot_no5_ON	15	n/a	n/a	8
311.39	n/a	155695	dot_no5_OFF	25	n/a	n/a	8
312.71	n/a	156355	dot_no2_ON	12	n/a	n/a	8
313.29	n/a	156645	dot_no2_OFF	22	n/a	n/a	8
314.61	n/a	157305	dot_no7_ON	17	n/a	n/a	8
315.19	n/a	157595	dot_no7_OFF	27	1-6-8-4-7-2-3-5-7-1	1-6-4-2-7-3-8-5-2-7	8
354.232	n/a	177116	seqLearning_stop	50	n/a	n/a	8
354.967	n/a	177483.5	boundary	boundary	n/a	n/a	8
