onset	duration	sample	value	event_code	user_answer	correct_answer	target_count
0	n/a	0	break cnt	break cnt	n/a	n/a	8
30.72	n/a	15360	seqLearning_start	91	n/a	n/a	8
37.004	n/a	18502	learningBlock_1	31	n/a	n/a	8
37.036	n/a	18518	dot_no1_ON	11	n/a	n/a	8
37.626	n/a	18813	dot_no1_OFF	21	n/a	n/a	8
38.944	n/a	19472	dot_no6_ON	16	n/a	n/a	8
39.524	n/a	19762	dot_no6_OFF	26	n/a	n/a	8
40.844	n/a	20422	dot_no4_ON	14	n/a	n/a	8
41.424	n/a	20712	dot_no4_OFF	24	n/a	n/a	8
42.744	n/a	21372	dot_no2_ON	12	n/a	n/a	8
43.324	n/a	21662	dot_no2_OFF	22	n/a	n/a	8
44.644	n/a	22322	dot_no7_ON	17	n/a	n/a	8
45.224	n/a	22612	dot_no7_OFF	27	n/a	n/a	8
46.544	n/a	23272	dot_no3_ON	13	n/a	n/a	8
47.124	n/a	23562	dot_no3_OFF	23	n/a	n/a	8
48.444	n/a	24222	dot_no8_ON	18	n/a	n/a	8
49.024	n/a	24512	dot_no8_OFF	28	n/a	n/a	8
50.344	n/a	25172	dot_no5_ON	15	n/a	n/a	8
50.924	n/a	25462	dot_no5_OFF	25	n/a	n/a	8
52.244	n/a	26122	dot_no2_ON	12	n/a	n/a	8
52.824	n/a	26412	dot_no2_OFF	22	n/a	n/a	8
54.144	n/a	27072	dot_no7_ON	17	n/a	n/a	8
54.724	n/a	27362	dot_no7_OFF	27	1-6-4-2-7-3-8-5-2-7	1-6-4-2-7-3-8-5-2-7	8
78.228	n/a	39114	learningBlock_2	32	n/a	n/a	8
78.236	n/a	39118	dot_no1_ON	11	n/a	n/a	8
78.816	n/a	39408	dot_no1_OFF	21	n/a	n/a	8
80.136	n/a	40068	dot_no6_ON	16	n/a	n/a	8
80.716	n/a	40358	dot_no6_OFF	26	n/a	n/a	8
82.036	n/a	41018	dot_no4_ON	14	n/a	n/a	8
82.616	n/a	41308	dot_no4_OFF	24	n/a	n/a	8
83.936	n/a	41968	dot_no2_ON	12	n/a	n/a	8
84.516	n/a	42258	dot_no2_OFF	22	n/a	n/a	8
85.836	n/a	42918	dot_no7_ON	17	n/a	n/a	8
86.416	n/a	43208	dot_no7_OFF	27	n/a	n/a	8
87.736	n/a	43868	dot_no3_ON	13	n/a	n/a	8
88.316	n/a	44158	dot_no3_OFF	23	n/a	n/a	8
89.636	n/a	44818	dot_no8_ON	18	n/a	n/a	8
90.216	n/a	45108	dot_no8_OFF	28	n/a	n/a	8
91.536	n/a	45768	dot_no5_ON	15	n/a	n/a	8
92.116	n/a	46058	dot_no5_OFF	25	n/a	n/a	8
93.436	n/a	46718	dot_no2_ON	12	n/a	n/a	8
94.016	n/a	47008	dot_no2_OFF	22	n/a	n/a	8
95.336	n/a	47668	dot_no7_ON	17	n/a	n/a	8
95.916	n/a	47958	dot_no7_OFF	27	1-6-4-2-8-5-3-7-2-7	1-6-4-2-7-3-8-5-2-7	8
119.868	n/a	59934	learningBlock_3	33	n/a	n/a	8
119.876	n/a	59938	dot_no1_ON	11	n/a	n/a	8
120.456	n/a	60228	dot_no1_OFF	21	n/a	n/a	8
121.776	n/a	60888	dot_no6_ON	16	n/a	n/a	8
122.356	n/a	61178	dot_no6_OFF	26	n/a	n/a	8
123.676	n/a	61838	dot_no4_ON	14	n/a	n/a	8
124.266	n/a	62133	dot_no4_OFF	24	n/a	n/a	8
125.586	n/a	62793	dot_no2_ON	12	n/a	n/a	8
126.176	n/a	63088	dot_no2_OFF	22	n/a	n/a	8
127.516	n/a	63758	dot_no7_ON	17	n/a	n/a	8
128.096	n/a	64048	dot_no7_OFF	27	n/a	n/a	8
129.416	n/a	64708	dot_no3_ON	13	n/a	n/a	8
129.996	n/a	64998	dot_no3_OFF	23	n/a	n/a	8
131.318	n/a	65659	dot_no8_ON	18	n/a	n/a	8
131.896	n/a	65948	dot_no8_OFF	28	n/a	n/a	8
133.216	n/a	66608	dot_no5_ON	15	n/a	n/a	8
133.806	n/a	66903	dot_no5_OFF	25	n/a	n/a	8
135.126	n/a	67563	dot_no2_ON	12	n/a	n/a	8
135.716	n/a	67858	dot_no2_OFF	22	n/a	n/a	8
137.036	n/a	68518	dot_no7_ON	17	n/a	n/a	8
137.616	n/a	68808	dot_no7_OFF	27	1-6-4-2-7-3-8-7-3-5	1-6-4-2-7-3-8-5-2-7	8
157.46	n/a	78730	learningBlock_4	34	n/a	n/a	8
157.466	n/a	78733	dot_no1_ON	11	n/a	n/a	8
158.058	n/a	79029	dot_no1_OFF	21	n/a	n/a	8
159.378	n/a	79689	dot_no6_ON	16	n/a	n/a	8
159.958	n/a	79979	dot_no6_OFF	26	n/a	n/a	8
161.278	n/a	80639	dot_no4_ON	14	n/a	n/a	8
161.858	n/a	80929	dot_no4_OFF	24	n/a	n/a	8
163.178	n/a	81589	dot_no2_ON	12	n/a	n/a	8
163.768	n/a	81884	dot_no2_OFF	22	n/a	n/a	8
165.088	n/a	82544	dot_no7_ON	17	n/a	n/a	8
165.668	n/a	82834	dot_no7_OFF	27	n/a	n/a	8
166.988	n/a	83494	dot_no3_ON	13	n/a	n/a	8
167.568	n/a	83784	dot_no3_OFF	23	n/a	n/a	8
168.888	n/a	84444	dot_no8_ON	18	n/a	n/a	8
169.468	n/a	84734	dot_no8_OFF	28	n/a	n/a	8
170.788	n/a	85394	dot_no5_ON	15	n/a	n/a	8
171.378	n/a	85689	dot_no5_OFF	25	n/a	n/a	8
172.698	n/a	86349	dot_no2_ON	12	n/a	n/a	8
173.278	n/a	86639	dot_no2_OFF	22	n/a	n/a	8
174.598	n/a	87299	dot_no7_ON	17	n/a	n/a	8
175.178	n/a	87589	dot_no7_OFF	27	1-6-4-2-7-3-8-5-2-7	1-6-4-2-7-3-8-5-2-7	8
191.73	n/a	95865	learningBlock_5	35	n/a	n/a	8
191.738	n/a	95869	dot_no1_ON	11	n/a	n/a	8
192.318	n/a	96159	dot_no1_OFF	21	n/a	n/a	8
193.638	n/a	96819	dot_no6_ON	16	n/a	n/a	8
194.218	n/a	97109	dot_no6_OFF	26	n/a	n/a	8
195.538	n/a	97769	dot_no4_ON	14	n/a	n/a	8
196.118	n/a	98059	dot_no4_OFF	24	n/a	n/a	8
197.438	n/a	98719	dot_no2_ON	12	n/a	n/a	8
198.018	n/a	99009	dot_no2_OFF	22	n/a	n/a	8
199.338	n/a	99669	dot_no7_ON	17	n/a	n/a	8
199.918	n/a	99959	dot_no7_OFF	27	n/a	n/a	8
201.238	n/a	100619	dot_no3_ON	13	n/a	n/a	8
201.818	n/a	100909	dot_no3_OFF	23	n/a	n/a	8
203.138	n/a	101569	dot_no8_ON	18	n/a	n/a	8
203.718	n/a	101859	dot_no8_OFF	28	n/a	n/a	8
205.038	n/a	102519	dot_no5_ON	15	n/a	n/a	8
205.618	n/a	102809	dot_no5_OFF	25	n/a	n/a	8
206.938	n/a	103469	dot_no2_ON	12	n/a	n/a	8
207.518	n/a	103759	dot_no2_OFF	22	n/a	n/a	8
208.838	n/a	104419	dot_no7_ON	17	n/a	n/a	8
209.428	n/a	104714	dot_no7_OFF	27	1-6-4-2-7-3-8-5-2-7	1-6-4-2-7-3-8-5-2-7	8
225.17	n/a	112585	seqLearning_stop	50	n/a	n/a	8
225.977	n/a	112988.5	boundary	boundary	n/a	n/a	8
