onset	duration	sample	value	event_code	user_answer	correct_answer	target_count
0	n/a	0	break cnt	break cnt	n/a	n/a	8
36.18	n/a	18090	seqLearning_start	91	n/a	n/a	8
42.464	n/a	21232	learningBlock_1	31	n/a	n/a	8
42.492	n/a	21246	dot_no1_ON	11	n/a	n/a	8
43.082	n/a	21541	dot_no1_OFF	21	n/a	n/a	8
44.4	n/a	22200	dot_no6_ON	16	n/a	n/a	8
44.98	n/a	22490	dot_no6_OFF	26	n/a	n/a	8
46.3	n/a	23150	dot_no4_ON	14	n/a	n/a	8
46.88	n/a	23440	dot_no4_OFF	24	n/a	n/a	8
48.2	n/a	24100	dot_no2_ON	12	n/a	n/a	8
48.79	n/a	24395	dot_no2_OFF	22	n/a	n/a	8
50.11	n/a	25055	dot_no7_ON	17	n/a	n/a	8
50.69	n/a	25345	dot_no7_OFF	27	n/a	n/a	8
52.01	n/a	26005	dot_no3_ON	13	n/a	n/a	8
52.59	n/a	26295	dot_no3_OFF	23	n/a	n/a	8
53.91	n/a	26955	dot_no8_ON	18	n/a	n/a	8
54.5	n/a	27250	dot_no8_OFF	28	n/a	n/a	8
55.82	n/a	27910	dot_no5_ON	15	n/a	n/a	8
56.4	n/a	28200	dot_no5_OFF	25	n/a	n/a	8
57.72	n/a	28860	dot_no2_ON	12	n/a	n/a	8
58.3	n/a	29150	dot_no2_OFF	22	n/a	n/a	8
59.62	n/a	29810	dot_no7_ON	17	n/a	n/a	8
60.2	n/a	30100	dot_no7_OFF	27	1-6-4-2-7-5-8-2-3-2	1-6-4-2-7-3-8-5-2-7	8
89.834	n/a	44917	learningBlock_2	32	n/a	n/a	8
89.842	n/a	44921	dot_no1_ON	11	n/a	n/a	8
90.422	n/a	45211	dot_no1_OFF	21	n/a	n/a	8
91.742	n/a	45871	dot_no6_ON	16	n/a	n/a	8
92.332	n/a	46166	dot_no6_OFF	26	n/a	n/a	8
93.652	n/a	46826	dot_no4_ON	14	n/a	n/a	8
94.242	n/a	47121	dot_no4_OFF	24	n/a	n/a	8
95.562	n/a	47781	dot_no2_ON	12	n/a	n/a	8
96.142	n/a	48071	dot_no2_OFF	22	n/a	n/a	8
97.462	n/a	48731	dot_no7_ON	17	n/a	n/a	8
98.042	n/a	49021	dot_no7_OFF	27	n/a	n/a	8
99.362	n/a	49681	dot_no3_ON	13	n/a	n/a	8
99.942	n/a	49971	dot_no3_OFF	23	n/a	n/a	8
101.262	n/a	50631	dot_no8_ON	18	n/a	n/a	8
101.852	n/a	50926	dot_no8_OFF	28	n/a	n/a	8
103.172	n/a	51586	dot_no5_ON	15	n/a	n/a	8
103.752	n/a	51876	dot_no5_OFF	25	n/a	n/a	8
105.072	n/a	52536	dot_no2_ON	12	n/a	n/a	8
105.652	n/a	52826	dot_no2_OFF	22	n/a	n/a	8
106.972	n/a	53486	dot_no7_ON	17	n/a	n/a	8
107.562	n/a	53781	dot_no7_OFF	27	1-6-4-2-7-3-8-5-8-2	1-6-4-2-7-3-8-5-2-7	8
129.004	n/a	64502	learningBlock_3	33	n/a	n/a	8
129.012	n/a	64506	dot_no1_ON	11	n/a	n/a	8
129.592	n/a	64796	dot_no1_OFF	21	n/a	n/a	8
130.912	n/a	65456	dot_no6_ON	16	n/a	n/a	8
131.492	n/a	65746	dot_no6_OFF	26	n/a	n/a	8
132.812	n/a	66406	dot_no4_ON	14	n/a	n/a	8
133.402	n/a	66701	dot_no4_OFF	24	n/a	n/a	8
134.722	n/a	67361	dot_no2_ON	12	n/a	n/a	8
135.312	n/a	67656	dot_no2_OFF	22	n/a	n/a	8
136.632	n/a	68316	dot_no7_ON	17	n/a	n/a	8
137.212	n/a	68606	dot_no7_OFF	27	n/a	n/a	8
138.532	n/a	69266	dot_no3_ON	13	n/a	n/a	8
139.112	n/a	69556	dot_no3_OFF	23	n/a	n/a	8
140.434	n/a	70217	dot_no8_ON	18	n/a	n/a	8
141.012	n/a	70506	dot_no8_OFF	28	n/a	n/a	8
142.332	n/a	71166	dot_no5_ON	15	n/a	n/a	8
142.912	n/a	71456	dot_no5_OFF	25	n/a	n/a	8
144.232	n/a	72116	dot_no2_ON	12	n/a	n/a	8
144.812	n/a	72406	dot_no2_OFF	22	n/a	n/a	8
146.132	n/a	73066	dot_no7_ON	17	n/a	n/a	8
146.712	n/a	73356	dot_no7_OFF	27	1-6-4-2-7-3-8-5-2-7	1-6-4-2-7-3-8-5-2-7	8
165.746	n/a	82873	learningBlock_4	34	n/a	n/a	8
165.754	n/a	82877	dot_no1_ON	11	n/a	n/a	8
166.334	n/a	83167	dot_no1_OFF	21	n/a	n/a	8
167.654	n/a	83827	dot_no6_ON	16	n/a	n/a	8
168.234	n/a	84117	dot_no6_OFF	26	n/a	n/a	8
169.554	n/a	84777	dot_no4_ON	14	n/a	n/a	8
170.134	n/a	85067	dot_no4_OFF	24	n/a	n/a	8
171.454	n/a	85727	dot_no2_ON	12	n/a	n/a	8
172.044	n/a	86022	dot_no2_OFF	22	n/a	n/a	8
173.384	n/a	86692	dot_no7_ON	17	n/a	n/a	8
173.964	n/a	86982	dot_no7_OFF	27	n/a	n/a	8
175.284	n/a	87642	dot_no3_ON	13	n/a	n/a	8
175.864	n/a	87932	dot_no3_OFF	23	n/a	n/a	8
177.184	n/a	88592	dot_no8_ON	18	n/a	n/a	8
177.764	n/a	88882	dot_no8_OFF	28	n/a	n/a	8
179.084	n/a	89542	dot_no5_ON	15	n/a	n/a	8
179.674	n/a	89837	dot_no5_OFF	25	n/a	n/a	8
180.994	n/a	90497	dot_no2_ON	12	n/a	n/a	8
181.584	n/a	90792	dot_no2_OFF	22	n/a	n/a	8
182.904	n/a	91452	dot_no7_ON	17	n/a	n/a	8
183.484	n/a	91742	dot_no7_OFF	27	1-6-4-2-7-3-8-5-2-7	1-6-4-2-7-3-8-5-2-7	8
208.026	n/a	104013	learningBlock_5	35	n/a	n/a	8
208.034	n/a	104017	dot_no1_ON	11	n/a	n/a	8
208.624	n/a	104312	dot_no1_OFF	21	n/a	n/a	8
209.944	n/a	104972	dot_no6_ON	16	n/a	n/a	8
210.524	n/a	105262	dot_no6_OFF	26	n/a	n/a	8
211.844	n/a	105922	dot_no4_ON	14	n/a	n/a	8
212.424	n/a	106212	dot_no4_OFF	24	n/a	n/a	8
213.744	n/a	106872	dot_no2_ON	12	n/a	n/a	8
214.324	n/a	107162	dot_no2_OFF	22	n/a	n/a	8
215.644	n/a	107822	dot_no7_ON	17	n/a	n/a	8
216.224	n/a	108112	dot_no7_OFF	27	n/a	n/a	8
217.544	n/a	108772	dot_no3_ON	13	n/a	n/a	8
218.124	n/a	109062	dot_no3_OFF	23	n/a	n/a	8
219.444	n/a	109722	dot_no8_ON	18	n/a	n/a	8
220.024	n/a	110012	dot_no8_OFF	28	n/a	n/a	8
221.344	n/a	110672	dot_no5_ON	15	n/a	n/a	8
221.924	n/a	110962	dot_no5_OFF	25	n/a	n/a	8
223.244	n/a	111622	dot_no2_ON	12	n/a	n/a	8
223.824	n/a	111912	dot_no2_OFF	22	n/a	n/a	8
225.144	n/a	112572	dot_no7_ON	17	n/a	n/a	8
225.734	n/a	112867	dot_no7_OFF	27	1-6-4-2-7-3-8-5-2-7	1-6-4-2-7-3-8-5-2-7	8
241.428	n/a	120714	seqLearning_stop	50	n/a	n/a	8
242.419	n/a	121209.5	boundary	boundary	n/a	n/a	8
