onset	duration	sample	value	event_code	user_answer	correct_answer	target_count
0	n/a	0	break cnt	break cnt	n/a	n/a	8
33.896	n/a	16948	seqLearning_start	91	n/a	n/a	8
40.168	n/a	20084	learningBlock_1	31	n/a	n/a	8
40.186	n/a	20093	dot_no1_ON	11	n/a	n/a	8
40.776	n/a	20388	dot_no1_OFF	21	n/a	n/a	8
42.094	n/a	21047	dot_no6_ON	16	n/a	n/a	8
42.674	n/a	21337	dot_no6_OFF	26	n/a	n/a	8
43.994	n/a	21997	dot_no4_ON	14	n/a	n/a	8
44.584	n/a	22292	dot_no4_OFF	24	n/a	n/a	8
45.904	n/a	22952	dot_no2_ON	12	n/a	n/a	8
46.484	n/a	23242	dot_no2_OFF	22	n/a	n/a	8
47.804	n/a	23902	dot_no7_ON	17	n/a	n/a	8
48.384	n/a	24192	dot_no7_OFF	27	n/a	n/a	8
49.704	n/a	24852	dot_no3_ON	13	n/a	n/a	8
50.284	n/a	25142	dot_no3_OFF	23	n/a	n/a	8
51.604	n/a	25802	dot_no8_ON	18	n/a	n/a	8
52.184	n/a	26092	dot_no8_OFF	28	n/a	n/a	8
53.504	n/a	26752	dot_no5_ON	15	n/a	n/a	8
54.084	n/a	27042	dot_no5_OFF	25	n/a	n/a	8
55.404	n/a	27702	dot_no2_ON	12	n/a	n/a	8
55.984	n/a	27992	dot_no2_OFF	22	n/a	n/a	8
57.304	n/a	28652	dot_no7_ON	17	n/a	n/a	8
57.884	n/a	28942	dot_no7_OFF	27	1-6-8-4-2-5-2-7-3-6	1-6-4-2-7-3-8-5-2-7	8
83.756	n/a	41878	learningBlock_2	32	n/a	n/a	8
83.764	n/a	41882	dot_no1_ON	11	n/a	n/a	8
84.344	n/a	42172	dot_no1_OFF	21	n/a	n/a	8
85.664	n/a	42832	dot_no6_ON	16	n/a	n/a	8
86.244	n/a	43122	dot_no6_OFF	26	n/a	n/a	8
87.564	n/a	43782	dot_no4_ON	14	n/a	n/a	8
88.144	n/a	44072	dot_no4_OFF	24	n/a	n/a	8
89.464	n/a	44732	dot_no2_ON	12	n/a	n/a	8
90.054	n/a	45027	dot_no2_OFF	22	n/a	n/a	8
91.374	n/a	45687	dot_no7_ON	17	n/a	n/a	8
91.964	n/a	45982	dot_no7_OFF	27	n/a	n/a	8
93.284	n/a	46642	dot_no3_ON	13	n/a	n/a	8
93.864	n/a	46932	dot_no3_OFF	23	n/a	n/a	8
95.184	n/a	47592	dot_no8_ON	18	n/a	n/a	8
95.764	n/a	47882	dot_no8_OFF	28	n/a	n/a	8
97.084	n/a	48542	dot_no5_ON	15	n/a	n/a	8
97.664	n/a	48832	dot_no5_OFF	25	n/a	n/a	8
98.984	n/a	49492	dot_no2_ON	12	n/a	n/a	8
99.564	n/a	49782	dot_no2_OFF	22	n/a	n/a	8
100.884	n/a	50442	dot_no7_ON	17	n/a	n/a	8
101.464	n/a	50732	dot_no7_OFF	27	1-6-8-4-7-2-3-8-5-7	1-6-4-2-7-3-8-5-2-7	8
120.666	n/a	60333	learningBlock_3	33	n/a	n/a	8
120.674	n/a	60337	dot_no1_ON	11	n/a	n/a	8
121.254	n/a	60627	dot_no1_OFF	21	n/a	n/a	8
122.574	n/a	61287	dot_no6_ON	16	n/a	n/a	8
123.154	n/a	61577	dot_no6_OFF	26	n/a	n/a	8
124.474	n/a	62237	dot_no4_ON	14	n/a	n/a	8
125.064	n/a	62532	dot_no4_OFF	24	n/a	n/a	8
126.384	n/a	63192	dot_no2_ON	12	n/a	n/a	8
126.964	n/a	63482	dot_no2_OFF	22	n/a	n/a	8
128.284	n/a	64142	dot_no7_ON	17	n/a	n/a	8
128.864	n/a	64432	dot_no7_OFF	27	n/a	n/a	8
130.184	n/a	65092	dot_no3_ON	13	n/a	n/a	8
130.764	n/a	65382	dot_no3_OFF	23	n/a	n/a	8
132.084	n/a	66042	dot_no8_ON	18	n/a	n/a	8
132.664	n/a	66332	dot_no8_OFF	28	n/a	n/a	8
133.984	n/a	66992	dot_no5_ON	15	n/a	n/a	8
134.564	n/a	67282	dot_no5_OFF	25	n/a	n/a	8
135.884	n/a	67942	dot_no2_ON	12	n/a	n/a	8
136.464	n/a	68232	dot_no2_OFF	22	n/a	n/a	8
137.784	n/a	68892	dot_no7_ON	17	n/a	n/a	8
138.364	n/a	69182	dot_no7_OFF	27	1-6-4-2-8-7-5-2-3-8	1-6-4-2-7-3-8-5-2-7	8
159.336	n/a	79668	learningBlock_4	34	n/a	n/a	8
159.344	n/a	79672	dot_no1_ON	11	n/a	n/a	8
159.922	n/a	79961	dot_no1_OFF	21	n/a	n/a	8
161.244	n/a	80622	dot_no6_ON	16	n/a	n/a	8
161.822	n/a	80911	dot_no6_OFF	26	n/a	n/a	8
163.142	n/a	81571	dot_no4_ON	14	n/a	n/a	8
163.722	n/a	81861	dot_no4_OFF	24	n/a	n/a	8
165.044	n/a	82522	dot_no2_ON	12	n/a	n/a	8
165.632	n/a	82816	dot_no2_OFF	22	n/a	n/a	8
166.952	n/a	83476	dot_no7_ON	17	n/a	n/a	8
167.534	n/a	83767	dot_no7_OFF	27	n/a	n/a	8
168.852	n/a	84426	dot_no3_ON	13	n/a	n/a	8
169.432	n/a	84716	dot_no3_OFF	23	n/a	n/a	8
170.752	n/a	85376	dot_no8_ON	18	n/a	n/a	8
171.332	n/a	85666	dot_no8_OFF	28	n/a	n/a	8
172.652	n/a	86326	dot_no5_ON	15	n/a	n/a	8
173.242	n/a	86621	dot_no5_OFF	25	n/a	n/a	8
174.562	n/a	87281	dot_no2_ON	12	n/a	n/a	8
175.152	n/a	87576	dot_no2_OFF	22	n/a	n/a	8
176.472	n/a	88236	dot_no7_ON	17	n/a	n/a	8
177.052	n/a	88526	dot_no7_OFF	27	1-6-4-2-5-8-7-3-5-2	1-6-4-2-7-3-8-5-2-7	8
193.384	n/a	96692	learningBlock_5	35	n/a	n/a	8
193.392	n/a	96696	dot_no1_ON	11	n/a	n/a	8
193.972	n/a	96986	dot_no1_OFF	21	n/a	n/a	8
195.292	n/a	97646	dot_no6_ON	16	n/a	n/a	8
195.872	n/a	97936	dot_no6_OFF	26	n/a	n/a	8
197.192	n/a	98596	dot_no4_ON	14	n/a	n/a	8
197.772	n/a	98886	dot_no4_OFF	24	n/a	n/a	8
199.092	n/a	99546	dot_no2_ON	12	n/a	n/a	8
199.672	n/a	99836	dot_no2_OFF	22	n/a	n/a	8
200.992	n/a	100496	dot_no7_ON	17	n/a	n/a	8
201.572	n/a	100786	dot_no7_OFF	27	n/a	n/a	8
202.892	n/a	101446	dot_no3_ON	13	n/a	n/a	8
203.472	n/a	101736	dot_no3_OFF	23	n/a	n/a	8
204.792	n/a	102396	dot_no8_ON	18	n/a	n/a	8
205.372	n/a	102686	dot_no8_OFF	28	n/a	n/a	8
206.692	n/a	103346	dot_no5_ON	15	n/a	n/a	8
207.272	n/a	103636	dot_no5_OFF	25	n/a	n/a	8
208.592	n/a	104296	dot_no2_ON	12	n/a	n/a	8
209.172	n/a	104586	dot_no2_OFF	22	n/a	n/a	8
210.492	n/a	105246	dot_no7_ON	17	n/a	n/a	8
211.082	n/a	105541	dot_no7_OFF	27	1-6-4-2-8-5-1-2-7-3	1-6-4-2-7-3-8-5-2-7	8
233.084	n/a	116542	seqLearning_stop	50	n/a	n/a	8
233.723	n/a	116861.5	boundary	boundary	n/a	n/a	8
