onset	duration	sample	value	event_code	user_answer	correct_answer	target_count
0	n/a	0	break cnt	break cnt	n/a	n/a	8
38.104	n/a	19052	seqLearning_start	91	n/a	n/a	8
47.408	n/a	23704	learningBlock_1	31	n/a	n/a	8
47.426	n/a	23713	dot_no1_ON	11	n/a	n/a	8
48.016	n/a	24008	dot_no1_OFF	21	n/a	n/a	8
49.336	n/a	24668	dot_no6_ON	16	n/a	n/a	8
49.926	n/a	24963	dot_no6_OFF	26	n/a	n/a	8
51.246	n/a	25623	dot_no4_ON	14	n/a	n/a	8
51.836	n/a	25918	dot_no4_OFF	24	n/a	n/a	8
53.156	n/a	26578	dot_no2_ON	12	n/a	n/a	8
53.746	n/a	26873	dot_no2_OFF	22	n/a	n/a	8
55.066	n/a	27533	dot_no7_ON	17	n/a	n/a	8
55.656	n/a	27828	dot_no7_OFF	27	n/a	n/a	8
56.976	n/a	28488	dot_no3_ON	13	n/a	n/a	8
57.566	n/a	28783	dot_no3_OFF	23	n/a	n/a	8
58.886	n/a	29443	dot_no8_ON	18	n/a	n/a	8
59.476	n/a	29738	dot_no8_OFF	28	n/a	n/a	8
60.796	n/a	30398	dot_no5_ON	15	n/a	n/a	8
61.386	n/a	30693	dot_no5_OFF	25	n/a	n/a	8
62.706	n/a	31353	dot_no2_ON	12	n/a	n/a	8
63.296	n/a	31648	dot_no2_OFF	22	n/a	n/a	8
64.616	n/a	32308	dot_no7_ON	17	n/a	n/a	8
65.206	n/a	32603	dot_no7_OFF	27	8-1-2-3-4-5-6-7-2-3	1-6-4-2-7-3-8-5-2-7	8
93.862	n/a	46931	learningBlock_2	32	n/a	n/a	8
93.876	n/a	46938	dot_no1_ON	11	n/a	n/a	8
94.466	n/a	47233	dot_no1_OFF	21	n/a	n/a	8
95.786	n/a	47893	dot_no6_ON	16	n/a	n/a	8
96.376	n/a	48188	dot_no6_OFF	26	n/a	n/a	8
97.696	n/a	48848	dot_no4_ON	14	n/a	n/a	8
98.286	n/a	49143	dot_no4_OFF	24	n/a	n/a	8
99.606	n/a	49803	dot_no2_ON	12	n/a	n/a	8
100.196	n/a	50098	dot_no2_OFF	22	n/a	n/a	8
101.518	n/a	50759	dot_no7_ON	17	n/a	n/a	8
102.106	n/a	51053	dot_no7_OFF	27	n/a	n/a	8
103.426	n/a	51713	dot_no3_ON	13	n/a	n/a	8
104.016	n/a	52008	dot_no3_OFF	23	n/a	n/a	8
105.336	n/a	52668	dot_no8_ON	18	n/a	n/a	8
105.926	n/a	52963	dot_no8_OFF	28	n/a	n/a	8
107.246	n/a	53623	dot_no5_ON	15	n/a	n/a	8
107.836	n/a	53918	dot_no5_OFF	25	n/a	n/a	8
109.156	n/a	54578	dot_no2_ON	12	n/a	n/a	8
109.746	n/a	54873	dot_no2_OFF	22	n/a	n/a	8
111.066	n/a	55533	dot_no7_ON	17	n/a	n/a	8
111.656	n/a	55828	dot_no7_OFF	27	8-1-2-3-4-5-6-7-8-1	1-6-4-2-7-3-8-5-2-7	8
133.112	n/a	66556	learningBlock_3	33	n/a	n/a	8
133.126	n/a	66563	dot_no1_ON	11	n/a	n/a	8
133.716	n/a	66858	dot_no1_OFF	21	n/a	n/a	8
135.036	n/a	67518	dot_no6_ON	16	n/a	n/a	8
135.626	n/a	67813	dot_no6_OFF	26	n/a	n/a	8
136.946	n/a	68473	dot_no4_ON	14	n/a	n/a	8
137.536	n/a	68768	dot_no4_OFF	24	n/a	n/a	8
138.856	n/a	69428	dot_no2_ON	12	n/a	n/a	8
139.446	n/a	69723	dot_no2_OFF	22	n/a	n/a	8
140.766	n/a	70383	dot_no7_ON	17	n/a	n/a	8
141.356	n/a	70678	dot_no7_OFF	27	n/a	n/a	8
142.676	n/a	71338	dot_no3_ON	13	n/a	n/a	8
143.266	n/a	71633	dot_no3_OFF	23	n/a	n/a	8
144.586	n/a	72293	dot_no8_ON	18	n/a	n/a	8
145.176	n/a	72588	dot_no8_OFF	28	n/a	n/a	8
146.496	n/a	73248	dot_no5_ON	15	n/a	n/a	8
147.086	n/a	73543	dot_no5_OFF	25	n/a	n/a	8
148.406	n/a	74203	dot_no2_ON	12	n/a	n/a	8
148.996	n/a	74498	dot_no2_OFF	22	n/a	n/a	8
150.316	n/a	75158	dot_no7_ON	17	n/a	n/a	8
150.906	n/a	75453	dot_no7_OFF	27	7-8-1-2-3-4-5-6-7-3	1-6-4-2-7-3-8-5-2-7	8
174.262	n/a	87131	learningBlock_4	34	n/a	n/a	8
174.276	n/a	87138	dot_no1_ON	11	n/a	n/a	8
174.866	n/a	87433	dot_no1_OFF	21	n/a	n/a	8
176.186	n/a	88093	dot_no6_ON	16	n/a	n/a	8
176.776	n/a	88388	dot_no6_OFF	26	n/a	n/a	8
178.096	n/a	89048	dot_no4_ON	14	n/a	n/a	8
178.686	n/a	89343	dot_no4_OFF	24	n/a	n/a	8
180.008	n/a	90004	dot_no2_ON	12	n/a	n/a	8
180.596	n/a	90298	dot_no2_OFF	22	n/a	n/a	8
181.918	n/a	90959	dot_no7_ON	17	n/a	n/a	8
182.506	n/a	91253	dot_no7_OFF	27	n/a	n/a	8
183.828	n/a	91914	dot_no3_ON	13	n/a	n/a	8
184.416	n/a	92208	dot_no3_OFF	23	n/a	n/a	8
185.738	n/a	92869	dot_no8_ON	18	n/a	n/a	8
186.326	n/a	93163	dot_no8_OFF	28	n/a	n/a	8
187.646	n/a	93823	dot_no5_ON	15	n/a	n/a	8
188.236	n/a	94118	dot_no5_OFF	25	n/a	n/a	8
189.558	n/a	94779	dot_no2_ON	12	n/a	n/a	8
190.146	n/a	95073	dot_no2_OFF	22	n/a	n/a	8
191.466	n/a	95733	dot_no7_ON	17	n/a	n/a	8
192.056	n/a	96028	dot_no7_OFF	27	1-2-3-8-7-6-6-5-4-3	1-6-4-2-7-3-8-5-2-7	8
209.812	n/a	104906	learningBlock_5	35	n/a	n/a	8
209.828	n/a	104914	dot_no1_ON	11	n/a	n/a	8
210.416	n/a	105208	dot_no1_OFF	21	n/a	n/a	8
211.738	n/a	105869	dot_no6_ON	16	n/a	n/a	8
212.326	n/a	106163	dot_no6_OFF	26	n/a	n/a	8
213.648	n/a	106824	dot_no4_ON	14	n/a	n/a	8
214.236	n/a	107118	dot_no4_OFF	24	n/a	n/a	8
215.558	n/a	107779	dot_no2_ON	12	n/a	n/a	8
216.146	n/a	108073	dot_no2_OFF	22	n/a	n/a	8
217.468	n/a	108734	dot_no7_ON	17	n/a	n/a	8
218.056	n/a	109028	dot_no7_OFF	27	n/a	n/a	8
219.376	n/a	109688	dot_no3_ON	13	n/a	n/a	8
219.966	n/a	109983	dot_no3_OFF	23	n/a	n/a	8
221.288	n/a	110644	dot_no8_ON	18	n/a	n/a	8
221.876	n/a	110938	dot_no8_OFF	28	n/a	n/a	8
223.198	n/a	111599	dot_no5_ON	15	n/a	n/a	8
223.786	n/a	111893	dot_no5_OFF	25	n/a	n/a	8
225.108	n/a	112554	dot_no2_ON	12	n/a	n/a	8
225.696	n/a	112848	dot_no2_OFF	22	n/a	n/a	8
227.018	n/a	113509	dot_no7_ON	17	n/a	n/a	8
227.606	n/a	113803	dot_no7_OFF	27	2-3-7-5-8-1-4-6-6-6	1-6-4-2-7-3-8-5-2-7	8
243.43	n/a	121715	seqLearning_stop	50	n/a	n/a	8
244.053	n/a	122026.5	boundary	boundary	n/a	n/a	8
