onset	duration	sample	value	event_code	user_answer	correct_answer	target_count
0	n/a	0	break cnt	break cnt	n/a	n/a	8
64.222	n/a	32111	seqLearning_start	91	n/a	n/a	8
70.486	n/a	35243	learningBlock_1	31	n/a	n/a	8
70.502	n/a	35251	dot_no1_ON	11	n/a	n/a	8
71.092	n/a	35546	dot_no1_OFF	21	n/a	n/a	8
72.412	n/a	36206	dot_no6_ON	16	n/a	n/a	8
73.002	n/a	36501	dot_no6_OFF	26	n/a	n/a	8
74.32	n/a	37160	dot_no4_ON	14	n/a	n/a	8
74.9	n/a	37450	dot_no4_OFF	24	n/a	n/a	8
76.222	n/a	38111	dot_no2_ON	12	n/a	n/a	8
76.8	n/a	38400	dot_no2_OFF	22	n/a	n/a	8
78.12	n/a	39060	dot_no7_ON	17	n/a	n/a	8
78.7	n/a	39350	dot_no7_OFF	27	n/a	n/a	8
80.02	n/a	40010	dot_no3_ON	13	n/a	n/a	8
80.6	n/a	40300	dot_no3_OFF	23	n/a	n/a	8
81.92	n/a	40960	dot_no8_ON	18	n/a	n/a	8
82.5	n/a	41250	dot_no8_OFF	28	n/a	n/a	8
83.82	n/a	41910	dot_no5_ON	15	n/a	n/a	8
84.41	n/a	42205	dot_no5_OFF	25	n/a	n/a	8
85.73	n/a	42865	dot_no2_ON	12	n/a	n/a	8
86.312	n/a	43156	dot_no2_OFF	22	n/a	n/a	8
87.63	n/a	43815	dot_no7_ON	17	n/a	n/a	8
88.21	n/a	44105	dot_no7_OFF	27	1-6-7-4-3-5-2-8-2-5	1-6-4-2-7-3-8-5-2-7	8
154.852	n/a	77426	learningBlock_2	32	n/a	n/a	8
154.86	n/a	77430	dot_no1_ON	11	n/a	n/a	8
155.44	n/a	77720	dot_no1_OFF	21	n/a	n/a	8
156.77	n/a	78385	dot_no6_ON	16	n/a	n/a	8
157.35	n/a	78675	dot_no6_OFF	26	n/a	n/a	8
158.67	n/a	79335	dot_no4_ON	14	n/a	n/a	8
159.25	n/a	79625	dot_no4_OFF	24	n/a	n/a	8
160.57	n/a	80285	dot_no2_ON	12	n/a	n/a	8
161.15	n/a	80575	dot_no2_OFF	22	n/a	n/a	8
162.47	n/a	81235	dot_no7_ON	17	n/a	n/a	8
163.05	n/a	81525	dot_no7_OFF	27	n/a	n/a	8
164.37	n/a	82185	dot_no3_ON	13	n/a	n/a	8
164.95	n/a	82475	dot_no3_OFF	23	n/a	n/a	8
166.27	n/a	83135	dot_no8_ON	18	n/a	n/a	8
166.85	n/a	83425	dot_no8_OFF	28	n/a	n/a	8
168.17	n/a	84085	dot_no5_ON	15	n/a	n/a	8
168.75	n/a	84375	dot_no5_OFF	25	n/a	n/a	8
170.07	n/a	85035	dot_no2_ON	12	n/a	n/a	8
170.66	n/a	85330	dot_no2_OFF	22	n/a	n/a	8
171.98	n/a	85990	dot_no7_ON	17	n/a	n/a	8
172.56	n/a	86280	dot_no7_OFF	27	1-6-4-7-2-3-5-7-7-8	1-6-4-2-7-3-8-5-2-7	8
201.402	n/a	100701	learningBlock_3	33	n/a	n/a	8
201.408	n/a	100704	dot_no1_ON	11	n/a	n/a	8
201.988	n/a	100994	dot_no1_OFF	21	n/a	n/a	8
203.31	n/a	101655	dot_no6_ON	16	n/a	n/a	8
203.898	n/a	101949	dot_no6_OFF	26	n/a	n/a	8
205.218	n/a	102609	dot_no4_ON	14	n/a	n/a	8
205.798	n/a	102899	dot_no4_OFF	24	n/a	n/a	8
207.118	n/a	103559	dot_no2_ON	12	n/a	n/a	8
207.698	n/a	103849	dot_no2_OFF	22	n/a	n/a	8
209.018	n/a	104509	dot_no7_ON	17	n/a	n/a	8
209.598	n/a	104799	dot_no7_OFF	27	n/a	n/a	8
210.918	n/a	105459	dot_no3_ON	13	n/a	n/a	8
211.508	n/a	105754	dot_no3_OFF	23	n/a	n/a	8
212.828	n/a	106414	dot_no8_ON	18	n/a	n/a	8
213.408	n/a	106704	dot_no8_OFF	28	n/a	n/a	8
214.728	n/a	107364	dot_no5_ON	15	n/a	n/a	8
215.308	n/a	107654	dot_no5_OFF	25	n/a	n/a	8
216.628	n/a	108314	dot_no2_ON	12	n/a	n/a	8
217.208	n/a	108604	dot_no2_OFF	22	n/a	n/a	8
218.528	n/a	109264	dot_no7_ON	17	n/a	n/a	8
219.108	n/a	109554	dot_no7_OFF	27	1-6-4-7-2-8-5-3-3-7	1-6-4-2-7-3-8-5-2-7	8
248.58	n/a	124290	learningBlock_4	34	n/a	n/a	8
248.598	n/a	124299	dot_no1_ON	11	n/a	n/a	8
249.178	n/a	124589	dot_no1_OFF	21	n/a	n/a	8
250.498	n/a	125249	dot_no6_ON	16	n/a	n/a	8
251.078	n/a	125539	dot_no6_OFF	26	n/a	n/a	8
252.398	n/a	126199	dot_no4_ON	14	n/a	n/a	8
252.978	n/a	126489	dot_no4_OFF	24	n/a	n/a	8
254.298	n/a	127149	dot_no2_ON	12	n/a	n/a	8
254.888	n/a	127444	dot_no2_OFF	22	n/a	n/a	8
256.208	n/a	128104	dot_no7_ON	17	n/a	n/a	8
256.788	n/a	128394	dot_no7_OFF	27	n/a	n/a	8
258.108	n/a	129054	dot_no3_ON	13	n/a	n/a	8
258.698	n/a	129349	dot_no3_OFF	23	n/a	n/a	8
260.018	n/a	130009	dot_no8_ON	18	n/a	n/a	8
260.598	n/a	130299	dot_no8_OFF	28	n/a	n/a	8
261.918	n/a	130959	dot_no5_ON	15	n/a	n/a	8
262.508	n/a	131254	dot_no5_OFF	25	n/a	n/a	8
263.828	n/a	131914	dot_no2_ON	12	n/a	n/a	8
264.408	n/a	132204	dot_no2_OFF	22	n/a	n/a	8
265.728	n/a	132864	dot_no7_ON	17	n/a	n/a	8
266.308	n/a	133154	dot_no7_OFF	27	8-5-3-2-7-1-7-6-4-5	1-6-4-2-7-3-8-5-2-7	8
294.248	n/a	147124	learningBlock_5	35	n/a	n/a	8
294.256	n/a	147128	dot_no1_ON	11	n/a	n/a	8
294.836	n/a	147418	dot_no1_OFF	21	n/a	n/a	8
296.156	n/a	148078	dot_no6_ON	16	n/a	n/a	8
296.736	n/a	148368	dot_no6_OFF	26	n/a	n/a	8
298.056	n/a	149028	dot_no4_ON	14	n/a	n/a	8
298.636	n/a	149318	dot_no4_OFF	24	n/a	n/a	8
299.956	n/a	149978	dot_no2_ON	12	n/a	n/a	8
300.536	n/a	150268	dot_no2_OFF	22	n/a	n/a	8
301.856	n/a	150928	dot_no7_ON	17	n/a	n/a	8
302.436	n/a	151218	dot_no7_OFF	27	n/a	n/a	8
303.756	n/a	151878	dot_no3_ON	13	n/a	n/a	8
304.336	n/a	152168	dot_no3_OFF	23	n/a	n/a	8
305.656	n/a	152828	dot_no8_ON	18	n/a	n/a	8
306.236	n/a	153118	dot_no8_OFF	28	n/a	n/a	8
307.556	n/a	153778	dot_no5_ON	15	n/a	n/a	8
308.136	n/a	154068	dot_no5_OFF	25	n/a	n/a	8
309.456	n/a	154728	dot_no2_ON	12	n/a	n/a	8
310.036	n/a	155018	dot_no2_OFF	22	n/a	n/a	8
311.356	n/a	155678	dot_no7_ON	17	n/a	n/a	8
311.946	n/a	155973	dot_no7_OFF	27	8-5-4-7-1-2-3-7-7-6	1-6-4-2-7-3-8-5-2-7	8
336.63	n/a	168315	seqLearning_stop	50	n/a	n/a	8
337.161	n/a	168580.5	boundary	boundary	n/a	n/a	8
