onset	duration	sample	value	event_code	user_answer	correct_answer	target_count
0	n/a	0	break cnt	break cnt	n/a	n/a	8
60.39	n/a	30195	seqLearning_start	91	n/a	n/a	8
66.664	n/a	33332	learningBlock_1	31	n/a	n/a	8
66.678	n/a	33339	dot_no1_ON	11	n/a	n/a	8
67.268	n/a	33634	dot_no1_OFF	21	n/a	n/a	8
68.586	n/a	34293	dot_no6_ON	16	n/a	n/a	8
69.166	n/a	34583	dot_no6_OFF	26	n/a	n/a	8
70.496	n/a	35248	dot_no4_ON	14	n/a	n/a	8
71.086	n/a	35543	dot_no4_OFF	24	n/a	n/a	8
72.406	n/a	36203	dot_no2_ON	12	n/a	n/a	8
72.986	n/a	36493	dot_no2_OFF	22	n/a	n/a	8
74.306	n/a	37153	dot_no7_ON	17	n/a	n/a	8
74.896	n/a	37448	dot_no7_OFF	27	n/a	n/a	8
76.216	n/a	38108	dot_no3_ON	13	n/a	n/a	8
76.796	n/a	38398	dot_no3_OFF	23	n/a	n/a	8
78.116	n/a	39058	dot_no8_ON	18	n/a	n/a	8
78.696	n/a	39348	dot_no8_OFF	28	n/a	n/a	8
80.016	n/a	40008	dot_no5_ON	15	n/a	n/a	8
80.596	n/a	40298	dot_no5_OFF	25	n/a	n/a	8
81.916	n/a	40958	dot_no2_ON	12	n/a	n/a	8
82.496	n/a	41248	dot_no2_OFF	22	n/a	n/a	8
83.816	n/a	41908	dot_no7_ON	17	n/a	n/a	8
84.396	n/a	42198	dot_no7_OFF	27	1-6-3-8-2-4-7-5-7-3	1-6-4-2-7-3-8-5-2-7	8
139.218	n/a	69609	learningBlock_2	32	n/a	n/a	8
139.224	n/a	69612	dot_no1_ON	11	n/a	n/a	8
139.804	n/a	69902	dot_no1_OFF	21	n/a	n/a	8
141.124	n/a	70562	dot_no6_ON	16	n/a	n/a	8
141.714	n/a	70857	dot_no6_OFF	26	n/a	n/a	8
143.034	n/a	71517	dot_no4_ON	14	n/a	n/a	8
143.614	n/a	71807	dot_no4_OFF	24	n/a	n/a	8
144.934	n/a	72467	dot_no2_ON	12	n/a	n/a	8
145.514	n/a	72757	dot_no2_OFF	22	n/a	n/a	8
146.834	n/a	73417	dot_no7_ON	17	n/a	n/a	8
147.414	n/a	73707	dot_no7_OFF	27	n/a	n/a	8
148.734	n/a	74367	dot_no3_ON	13	n/a	n/a	8
149.314	n/a	74657	dot_no3_OFF	23	n/a	n/a	8
150.634	n/a	75317	dot_no8_ON	18	n/a	n/a	8
151.214	n/a	75607	dot_no8_OFF	28	n/a	n/a	8
152.534	n/a	76267	dot_no5_ON	15	n/a	n/a	8
153.114	n/a	76557	dot_no5_OFF	25	n/a	n/a	8
154.434	n/a	77217	dot_no2_ON	12	n/a	n/a	8
155.014	n/a	77507	dot_no2_OFF	22	n/a	n/a	8
156.334	n/a	78167	dot_no7_ON	17	n/a	n/a	8
156.914	n/a	78457	dot_no7_OFF	27	1-6-7-3-8-4-5-6-1-8	1-6-4-2-7-3-8-5-2-7	8
187.386	n/a	93693	learningBlock_3	33	n/a	n/a	8
187.394	n/a	93697	dot_no1_ON	11	n/a	n/a	8
187.974	n/a	93987	dot_no1_OFF	21	n/a	n/a	8
189.294	n/a	94647	dot_no6_ON	16	n/a	n/a	8
189.884	n/a	94942	dot_no6_OFF	26	n/a	n/a	8
191.204	n/a	95602	dot_no4_ON	14	n/a	n/a	8
191.784	n/a	95892	dot_no4_OFF	24	n/a	n/a	8
193.104	n/a	96552	dot_no2_ON	12	n/a	n/a	8
193.684	n/a	96842	dot_no2_OFF	22	n/a	n/a	8
195.004	n/a	97502	dot_no7_ON	17	n/a	n/a	8
195.584	n/a	97792	dot_no7_OFF	27	n/a	n/a	8
196.904	n/a	98452	dot_no3_ON	13	n/a	n/a	8
197.484	n/a	98742	dot_no3_OFF	23	n/a	n/a	8
198.804	n/a	99402	dot_no8_ON	18	n/a	n/a	8
199.384	n/a	99692	dot_no8_OFF	28	n/a	n/a	8
200.704	n/a	100352	dot_no5_ON	15	n/a	n/a	8
201.284	n/a	100642	dot_no5_OFF	25	n/a	n/a	8
202.604	n/a	101302	dot_no2_ON	12	n/a	n/a	8
203.184	n/a	101592	dot_no2_OFF	22	n/a	n/a	8
204.504	n/a	102252	dot_no7_ON	17	n/a	n/a	8
205.084	n/a	102542	dot_no7_OFF	27	6-1-3-7-5-8-4-2-3-7	1-6-4-2-7-3-8-5-2-7	8
235.476	n/a	117738	learningBlock_4	34	n/a	n/a	8
235.484	n/a	117742	dot_no1_ON	11	n/a	n/a	8
236.064	n/a	118032	dot_no1_OFF	21	n/a	n/a	8
237.384	n/a	118692	dot_no6_ON	16	n/a	n/a	8
237.964	n/a	118982	dot_no6_OFF	26	n/a	n/a	8
239.284	n/a	119642	dot_no4_ON	14	n/a	n/a	8
239.864	n/a	119932	dot_no4_OFF	24	n/a	n/a	8
241.184	n/a	120592	dot_no2_ON	12	n/a	n/a	8
241.762	n/a	120881	dot_no2_OFF	22	n/a	n/a	8
243.082	n/a	121541	dot_no7_ON	17	n/a	n/a	8
243.664	n/a	121832	dot_no7_OFF	27	n/a	n/a	8
244.982	n/a	122491	dot_no3_ON	13	n/a	n/a	8
245.562	n/a	122781	dot_no3_OFF	23	n/a	n/a	8
246.882	n/a	123441	dot_no8_ON	18	n/a	n/a	8
247.462	n/a	123731	dot_no8_OFF	28	n/a	n/a	8
248.782	n/a	124391	dot_no5_ON	15	n/a	n/a	8
249.372	n/a	124686	dot_no5_OFF	25	n/a	n/a	8
250.692	n/a	125346	dot_no2_ON	12	n/a	n/a	8
251.272	n/a	125636	dot_no2_OFF	22	n/a	n/a	8
252.592	n/a	126296	dot_no7_ON	17	n/a	n/a	8
253.172	n/a	126586	dot_no7_OFF	27	6-1-4-2-5-8-3-7-2-1	1-6-4-2-7-3-8-5-2-7	8
286.954	n/a	143477	learningBlock_5	35	n/a	n/a	8
286.962	n/a	143481	dot_no1_ON	11	n/a	n/a	8
287.542	n/a	143771	dot_no1_OFF	21	n/a	n/a	8
288.862	n/a	144431	dot_no6_ON	16	n/a	n/a	8
289.442	n/a	144721	dot_no6_OFF	26	n/a	n/a	8
290.762	n/a	145381	dot_no4_ON	14	n/a	n/a	8
291.352	n/a	145676	dot_no4_OFF	24	n/a	n/a	8
292.672	n/a	146336	dot_no2_ON	12	n/a	n/a	8
293.252	n/a	146626	dot_no2_OFF	22	n/a	n/a	8
294.572	n/a	147286	dot_no7_ON	17	n/a	n/a	8
295.152	n/a	147576	dot_no7_OFF	27	n/a	n/a	8
296.472	n/a	148236	dot_no3_ON	13	n/a	n/a	8
297.052	n/a	148526	dot_no3_OFF	23	n/a	n/a	8
298.372	n/a	149186	dot_no8_ON	18	n/a	n/a	8
298.952	n/a	149476	dot_no8_OFF	28	n/a	n/a	8
300.272	n/a	150136	dot_no5_ON	15	n/a	n/a	8
300.852	n/a	150426	dot_no5_OFF	25	n/a	n/a	8
302.172	n/a	151086	dot_no2_ON	12	n/a	n/a	8
302.752	n/a	151376	dot_no2_OFF	22	n/a	n/a	8
304.072	n/a	152036	dot_no7_ON	17	n/a	n/a	8
304.662	n/a	152331	dot_no7_OFF	27	6-1-2-4-3-1-8-7-3-5	1-6-4-2-7-3-8-5-2-7	8
332.274	n/a	166137	seqLearning_stop	50	n/a	n/a	8
333.073	n/a	166536.5	boundary	boundary	n/a	n/a	8
